Time[s],Acceleration [mg],Force [N]  
0.0000,151.000,0.000 
0.0003,75.000,0.000 
0.0005,69.000,0.000 
0.0008,79.000,0.000 
0.0010,93.000,0.000 
0.0012,97.000,0.000 
0.0015,98.000,0.000 
0.0018,97.000,0.000 
0.0020,89.000,0.000 
0.0022,90.000,0.000 
0.0025,93.000,0.000 
0.0027,71.000,0.000 
0.0030,77.000,0.000 
0.0033,88.000,0.000 
0.0035,94.000,0.000 
0.0037,96.000,0.000 
0.0040,93.000,0.000 
0.0043,94.000,0.000 
0.0045,87.000,0.000 
0.0047,64.000,0.000 
0.0050,63.000,0.000 
0.0052,75.000,0.000 
0.0055,75.000,0.000 
0.0058,81.000,0.000 
0.0060,97.000,0.000 
0.0063,92.000,0.000 
0.0065,101.000,0.000 
0.0068,90.000,0.000 
0.0070,77.000,0.000 
0.0072,84.000,0.000 
0.0075,81.000,0.000 
0.0077,88.000,0.000 
0.0080,78.000,0.000 
0.0082,102.000,0.000 
0.0085,100.000,0.000 
0.0088,93.000,0.000 
0.0090,95.000,0.000 
0.0093,68.000,0.000 
0.0095,65.000,0.000 
0.0098,81.000,0.000 
0.0100,76.000,0.000 
0.0103,94.000,0.000 
0.0105,85.000,0.000 
0.0108,93.000,0.000 
0.0110,88.000,0.000 
0.0113,81.000,0.000 
0.0115,75.000,0.000 
0.0117,68.000,0.000 
0.0120,74.000,0.000 
0.0122,81.000,0.000 
0.0125,90.000,0.000 
0.0127,95.000,0.000 
0.0130,99.000,0.000 
0.0132,107.000,0.000 
0.0135,94.000,0.000 
0.0137,80.000,0.000 
0.0140,90.000,0.000 
0.0143,84.000,0.000 
0.0145,89.000,0.000 
0.0148,81.000,0.000 
0.0150,92.000,0.000 
0.0153,97.000,0.000 
0.0155,89.000,0.000 
0.0158,85.000,0.000 
0.0160,78.000,0.000 
0.0162,69.000,0.000 
0.0165,62.000,0.000 
0.0168,58.000,0.000 
0.0170,81.000,0.000 
0.0172,81.000,0.000 
0.0175,92.000,0.000 
0.0178,75.000,0.000 
0.0180,90.000,0.000 
0.0182,88.000,0.000 
0.0185,83.000,0.000 
0.0188,74.000,0.000 
0.0190,82.000,0.000 
0.0192,80.000,0.000 
0.0195,92.000,0.000 
0.0198,102.000,0.000 
0.0200,98.000,0.000 
0.0203,98.000,0.000 
0.0205,90.000,0.000 
0.0207,81.000,0.000 
0.0210,76.000,0.000 
0.0213,70.000,0.000 
0.0215,79.000,0.000 
0.0217,82.000,0.000 
0.0220,93.000,0.000 
0.0223,85.000,0.000 
0.0225,81.000,0.000 
0.0227,70.000,0.000 
0.0230,70.000,0.000 
0.0233,68.000,0.000 
0.0235,75.000,0.000 
0.0237,70.000,0.000 
0.0240,90.000,0.000 
0.0243,90.000,0.000 
0.0245,88.000,0.000 
0.0247,97.000,0.000 
0.0250,94.000,0.000 
0.0253,84.000,0.000 
0.0255,88.000,0.000 
0.0258,80.000,0.000 
0.0260,91.000,0.000 
0.0262,82.000,0.000 
0.0265,81.000,0.000 
0.0268,90.000,0.000 
0.0270,89.000,0.000 
0.0272,75.000,0.000 
0.0275,69.000,0.000 
0.0278,66.000,0.000 
0.0280,66.000,0.000 
0.0282,65.000,0.000 
0.0285,66.000,0.000 
0.0288,81.000,0.000 
0.0290,81.000,0.000 
0.0292,83.000,0.000 
0.0295,79.000,0.000 
0.0298,80.000,0.000 
0.0300,78.000,0.000 
0.0302,76.000,0.000 
0.0305,74.000,0.000 
0.0308,81.000,0.000 
0.0310,98.000,0.000 
0.0312,104.000,0.000 
0.0315,99.000,0.000 
0.0318,111.000,0.000 
0.0320,106.000,0.000 
0.0322,104.000,0.000 
0.0325,89.000,0.000 
0.0327,89.000,0.000 
0.0330,107.000,0.000 
0.0333,128.000,0.000 
0.0335,137.000,0.000 
0.0338,131.000,0.000 
0.0340,129.000,0.000 
0.0342,131.000,0.000 
0.0345,134.000,0.000 
0.0347,150.000,0.000 
0.0350,157.000,0.000 
0.0353,170.000,0.000 
0.0355,195.000,0.000 
0.0358,208.000,0.000 
0.0360,245.000,0.000 
0.0362,263.000,0.000 
0.0365,257.000,0.000 
0.0367,260.000,0.000 
0.0370,246.000,0.000 
0.0373,266.000,0.000 
0.0375,283.000,0.000 
0.0377,288.000,0.000 
0.0380,288.000,0.000 
0.0382,283.000,0.000 
0.0385,286.000,0.000 
0.0388,281.000,0.000 
0.0390,295.000,0.000 
0.0393,296.000,0.000 
0.0395,301.000,0.000 
0.0397,298.000,0.000 
0.0400,314.000,0.000 
0.0402,342.000,0.000 
0.0405,377.000,0.000 
0.0408,352.000,0.000 
0.0410,357.000,0.000 
0.0413,377.000,0.000 
0.0415,424.000,0.000 
0.0417,464.000,0.000 
0.0420,507.000,0.000 
0.0422,564.000,0.000 
0.0425,627.000,0.000 
0.0428,658.000,0.000 
0.0430,739.000,0.000 
0.0432,750.000,0.000 
0.0435,890.000,0.000 
0.0437,1062.000,0.000 
0.0440,1153.000,0.000 
0.0443,1188.000,0.000 
0.0445,1219.000,0.000 
0.0448,1288.000,0.000 
0.0450,1357.000,0.000 
0.0452,1498.000,0.000 
0.0455,1699.000,0.000 
0.0457,1909.000,0.000 
0.0460,2114.000,0.000 
0.0463,2191.000,0.000 
0.0465,2203.000,0.000 
0.0468,2236.000,0.000 
0.0470,2419.000,0.000 
0.0472,2673.000,0.000 
0.0475,2896.000,0.000 
0.0477,3095.000,0.000 
0.0480,3256.000,0.000 
0.0483,3403.000,0.000 
0.0485,3525.000,0.000 
0.0487,3648.000,0.000 
0.0490,3500.000,0.000 
0.0492,4225.000,0.000 
0.0495,3683.000,0.000 
0.0498,4493.000,0.000 
0.0500,4375.000,0.000 
0.0503,4735.000,0.000 
0.0505,4852.000,0.000 
0.0507,4921.000,0.000 
0.0510,5123.000,0.000 
0.0512,5206.000,0.000 
0.0515,5276.000,0.000 
0.0518,5588.000,0.000 
0.0520,5520.000,0.000 
0.0523,5799.000,0.000 
0.0525,5826.000,0.000 
0.0527,5989.000,0.000 
0.0530,6073.000,0.000 
0.0532,6068.000,0.000 
0.0535,6022.000,0.000 
0.0538,5709.000,0.000 
0.0540,5522.000,0.000 
0.0542,5271.000,0.000 
0.0545,4906.000,0.000 
0.0547,4398.000,0.000 
0.0550,3994.000,0.000 
0.0553,3538.000,0.000 
0.0555,3289.000,0.000 
0.0558,3063.000,0.000 
0.0560,2810.000,0.000 
0.0562,2650.000,0.000 
0.0565,2475.000,0.000 
0.0567,2422.000,0.000 
0.0570,2323.000,0.000 
0.0573,2184.000,0.000 
0.0575,2152.000,0.000 
0.0578,2049.000,0.000 
0.0580,1910.000,0.000 
0.0582,1919.000,0.000 
0.0585,1857.000,0.000 
0.0587,1838.000,0.000 
0.0590,1870.000,0.000 
0.0593,1874.000,0.000 
0.0595,1896.000,0.000 
0.0597,2011.000,0.000 
0.0600,2069.000,0.000 
0.0602,2200.000,0.000 
0.0605,2281.000,0.000 
0.0608,2401.000,0.000 
0.0610,2579.000,0.000 
0.0613,2708.000,0.000 
0.0615,2801.000,0.000 
0.0617,2901.000,0.000 
0.0620,3012.000,0.000 
0.0622,3125.000,0.000 
0.0625,3247.000,0.000 
0.0627,3292.000,0.000 
0.0630,3345.000,0.000 
0.0632,3367.000,0.000 
0.0635,3383.000,0.000 
0.0637,3424.000,0.000 
0.0640,3459.000,0.000 
0.0642,3481.000,0.000 
0.0645,3490.000,0.000 
0.0648,3449.000,0.000 
0.0650,3429.000,0.000 
0.0653,3388.000,0.000 
0.0655,3355.000,0.000 
0.0658,3327.000,0.000 
0.0660,3292.000,0.000 
0.0662,3240.000,0.000 
0.0665,3214.000,0.000 
0.0667,3163.000,0.000 
0.0670,3133.000,0.000 
0.0672,3084.000,0.000 
0.0675,3046.000,0.000 
0.0677,3016.000,0.000 
0.0680,2982.000,0.000 
0.0683,2949.000,0.000 
0.0685,2929.000,0.000 
0.0688,2930.000,0.000 
0.0690,2935.000,0.000 
0.0693,2945.000,0.000 
0.0695,2947.000,0.000 
0.0698,2948.000,0.000 
0.0700,2935.000,0.000 
0.0702,2941.000,0.000 
0.0705,2941.000,0.000 
0.0707,2951.000,0.000 
0.0710,2931.000,0.000 
0.0712,2943.000,0.000 
0.0715,2936.000,0.000 
0.0718,2931.000,0.000 
0.0720,2912.000,0.000 
0.0723,2899.000,0.000 
0.0725,2872.000,0.000 
0.0728,2830.000,0.000 
0.0730,2805.000,0.000 
0.0733,2781.000,0.000 
0.0735,2751.000,0.000 
0.0737,2705.000,0.000 
0.0740,2661.000,0.000 
0.0742,2634.000,0.000 
0.0745,2585.000,0.000 
0.0747,2540.000,0.000 
0.0750,2477.000,0.000 
0.0752,2425.000,0.000 
0.0755,2362.000,0.000 
0.0758,2333.000,0.000 
0.0760,2291.000,0.000 
0.0763,2250.000,0.000 
0.0765,2204.000,0.000 
0.0768,2154.000,0.000 
0.0770,2098.000,0.000 
0.0772,2053.000,0.000 
0.0775,2015.000,0.000 
0.0777,1975.000,0.000 
0.0780,1931.000,0.000 
0.0782,1895.000,0.000 
0.0785,1860.000,0.000 
0.0787,1829.000,0.000 
0.0790,1819.000,0.000 
0.0793,1767.000,0.000 
0.0795,1743.000,0.000 
0.0798,1715.000,0.000 
0.0800,1690.000,0.000 
0.0803,1667.000,0.000 
0.0805,1652.000,0.000 
0.0808,1645.000,0.000 
0.0810,1616.000,0.000 
0.0812,1611.000,0.000 
0.0815,1583.000,0.000 
0.0817,1569.000,0.000 
0.0820,1553.000,0.000 
0.0822,1534.000,0.000 
0.0825,1520.000,0.000 
0.0828,1501.000,0.000 
0.0830,1491.000,0.000 
0.0833,1462.000,0.000 
0.0835,1456.000,0.000 
0.0838,1424.000,0.000 
0.0840,1420.000,0.000 
0.0843,1390.000,0.000 
0.0845,1399.000,0.000 
0.0847,1258.000,0.000 
0.0850,1432.000,0.000 
0.0852,1319.000,0.000 
0.0855,1358.000,0.000 
0.0857,1317.000,0.000 
0.0860,1288.000,0.000 
0.0862,1300.000,0.000 
0.0865,1221.000,0.000 
0.0868,1338.000,0.000 
0.0870,1283.000,0.000 
0.0873,1321.000,0.000 
0.0875,1324.000,0.000 
0.0878,1274.000,0.000 
0.0880,1287.000,0.000 
0.0882,1286.000,0.000 
0.0885,1243.000,0.000 
0.0887,1311.000,0.000 
0.0890,1266.000,0.000 
0.0892,1311.000,0.000 
0.0895,1300.000,0.000 
0.0897,1284.000,0.000 
0.0900,1326.000,0.000 
0.0903,1323.000,0.000 
0.0905,1337.000,0.000 
0.0908,1350.000,0.000 
0.0910,1357.000,0.000 
0.0913,1353.000,0.000 
0.0915,1367.000,0.000 
0.0918,1359.000,0.000 
0.0920,1377.000,0.000 
0.0922,1396.000,0.000 
0.0925,1406.000,0.000 
0.0927,1418.000,0.000 
0.0930,1428.000,0.000 
0.0932,1416.000,0.000 
0.0935,1423.000,0.000 
0.0938,1382.000,0.000 
0.0940,1439.000,0.000 
0.0943,1423.000,0.000 
0.0945,1334.000,0.000 
0.0948,1507.000,0.000 
0.0950,1599.000,0.000 
0.0953,1505.000,0.000 
0.0955,1300.000,0.000 
0.0957,1195.000,0.000 
0.0960,1304.000,0.000 
0.0962,1523.000,0.000 
0.0965,1606.000,0.000 
0.0967,1611.000,0.000 
0.0970,1474.000,0.000 
0.0972,1377.000,0.000 
0.0975,1402.000,0.000 
0.0978,1382.000,0.000 
0.0980,1373.000,0.000 
0.0983,1407.000,0.000 
0.0985,1408.000,0.000 
0.0988,1458.000,0.000 
0.0990,1461.000,0.000 
0.0993,1441.000,0.000 
0.0995,1443.000,0.000 
0.0997,1475.000,0.000 
0.1000,1449.000,0.000 
0.1002,1432.000,0.000 
0.1005,1416.000,0.000 
0.1007,1374.000,0.000 
0.1010,1382.000,0.000 
0.1013,1376.000,0.000 
0.1015,1391.000,0.000 
0.1018,1409.000,0.000 
0.1020,1399.000,0.000 
0.1023,1391.000,0.000 
0.1025,1389.000,0.000 
0.1028,1362.000,0.000 
0.1030,1363.000,0.000 
0.1032,1340.000,0.000 
0.1035,1355.000,0.000 
0.1037,1351.000,0.000 
0.1040,1365.000,0.000 
0.1042,1360.000,0.000 
0.1045,1356.000,0.000 
0.1047,1337.000,0.000 
0.1050,1329.000,0.000 
0.1053,1315.000,0.000 
0.1055,1309.000,0.000 
0.1058,1305.000,0.000 
0.1060,1288.000,0.000 
0.1063,1289.000,0.000 
0.1065,1284.000,0.000 
0.1067,1272.000,0.000 
0.1070,1267.000,0.000 
0.1072,1238.000,0.000 
0.1075,1231.000,0.000 
0.1077,1222.000,0.000 
0.1080,1230.000,0.000 
0.1082,1229.000,0.000 
0.1085,1228.000,0.000 
0.1088,1231.000,0.000 
0.1090,1236.000,0.000 
0.1093,1227.000,0.000 
0.1095,1225.000,0.000 
0.1098,1234.000,0.000 
0.1100,1225.000,0.000 
0.1103,1227.000,0.000 
0.1105,1229.000,0.000 
0.1107,1225.000,0.000 
0.1110,1218.000,0.000 
0.1112,1232.000,0.000 
0.1115,1211.000,0.000 
0.1117,1213.000,0.000 
0.1120,1215.000,0.000 
0.1123,1204.000,0.000 
0.1125,1219.000,0.000 
0.1128,1217.000,0.000 
0.1130,1205.000,0.000 
0.1133,1221.000,0.000 
0.1135,1206.000,0.000 
0.1138,1221.000,0.000 
0.1140,1218.000,0.000 
0.1142,1221.000,0.000 
0.1145,1232.000,0.000 
0.1147,1243.000,0.000 
0.1150,1245.000,0.000 
0.1152,1260.000,0.000 
0.1155,1276.000,0.000 
0.1157,1277.000,0.000 
0.1160,1284.000,0.000 
0.1163,1280.000,0.000 
0.1165,1289.000,0.000 
0.1168,1302.000,0.000 
0.1170,1304.000,0.000 
0.1173,1302.000,0.000 
0.1175,1318.000,0.000 
0.1177,1321.000,0.000 
0.1180,1325.000,0.000 
0.1182,1324.000,0.000 
0.1185,1317.000,0.000 
0.1187,1324.000,0.000 
0.1190,1323.000,0.000 
0.1192,1338.000,0.000 
0.1195,1336.000,0.000 
0.1198,1335.000,0.000 
0.1200,1336.000,0.000 
0.1203,1341.000,0.000 
0.1205,1336.000,0.000 
0.1208,1328.000,0.000 
0.1210,1331.000,0.000 
0.1213,1322.000,0.000 
0.1215,1332.000,0.000 
0.1217,1324.000,0.000 
0.1220,1329.000,0.000 
0.1222,1326.000,0.000 
0.1225,1326.000,0.000 
0.1227,1318.000,0.000 
0.1230,1326.000,0.000 
0.1233,1315.000,0.000 
0.1235,1326.000,0.000 
0.1238,1326.000,0.000 
0.1240,1337.000,0.000 
0.1243,1322.000,0.000 
0.1245,1329.000,0.000 
0.1248,1330.000,0.000 
0.1250,1332.000,0.000 
0.1252,1344.000,0.000 
0.1255,1337.000,0.000 
0.1258,1341.000,0.000 
0.1260,1350.000,0.000 
0.1262,1356.000,0.000 
0.1265,1368.000,0.000 
0.1268,1362.000,0.000 
0.1270,1359.000,0.000 
0.1273,1359.000,0.000 
0.1275,1352.000,0.000 
0.1277,1359.000,0.000 
0.1280,1352.000,0.000 
0.1283,1354.000,0.000 
0.1285,1358.000,0.000 
0.1287,1343.000,0.000 
0.1290,1340.000,0.000 
0.1293,1348.000,0.000 
0.1295,1350.000,0.000 
0.1297,1338.000,0.000 
0.1300,1350.000,0.000 
0.1303,1344.000,0.000 
0.1305,1346.000,0.000 
0.1308,1336.000,0.000 
0.1310,1339.000,0.000 
0.1312,1349.000,0.000 
0.1315,1340.000,0.000 
0.1318,1359.000,0.000 
0.1320,1356.000,0.000 
0.1322,1373.000,0.000 
0.1325,1375.000,0.000 
0.1328,1382.000,0.000 
0.1330,1400.000,0.000 
0.1332,1393.000,0.000 
0.1335,1398.000,0.000 
0.1338,1399.000,0.000 
0.1340,1408.000,0.000 
0.1343,1412.000,0.000 
0.1345,1427.000,0.000 
0.1347,1424.000,0.000 
0.1350,1436.000,0.000 
0.1353,1444.000,0.000 
0.1355,1447.000,0.000 
0.1357,1460.000,0.000 
0.1360,1462.000,0.000 
0.1363,1464.000,0.000 
0.1365,1467.000,0.000 
0.1367,1481.000,0.000 
0.1370,1484.000,0.000 
0.1373,1478.000,0.000 
0.1375,1475.000,0.000 
0.1377,1484.000,0.000 
0.1380,1481.000,0.000 
0.1382,1478.000,0.000 
0.1385,1473.000,0.000 
0.1388,1458.000,0.000 
0.1390,1457.000,0.000 
0.1392,1453.000,0.000 
0.1395,1457.000,0.000 
0.1398,1447.000,0.000 
0.1400,1441.000,0.000 
0.1402,1442.000,0.000 
0.1405,1431.000,0.000 
0.1408,1415.000,0.000 
0.1410,1411.000,0.000 
0.1412,1412.000,0.000 
0.1415,1397.000,0.000 
0.1417,1394.000,0.000 
0.1420,1387.000,0.000 
0.1423,1393.000,0.000 
0.1425,1386.000,0.000 
0.1427,1383.000,0.000 
0.1430,1365.000,0.000 
0.1433,1356.000,0.000 
0.1435,1362.000,0.000 
0.1437,1350.000,0.000 
0.1440,1346.000,0.000 
0.1443,1344.000,0.000 
0.1445,1342.000,0.000 
0.1447,1332.000,0.000 
0.1450,1324.000,0.000 
0.1452,1323.000,0.000 
0.1455,1319.000,0.000 
0.1458,1301.000,0.000 
0.1460,1299.000,0.000 
0.1462,1281.000,0.000 
0.1465,1285.000,0.000 
0.1468,1276.000,0.000 
0.1470,1266.000,0.000 
0.1472,1253.000,0.000 
0.1475,1245.000,0.000 
0.1478,1234.000,0.000 
0.1480,1231.000,0.000 
0.1482,1228.000,0.000 
0.1485,1228.000,0.000 
0.1488,1220.000,0.000 
0.1490,1216.000,0.000 
0.1493,1220.000,0.000 
0.1495,1211.000,0.000 
0.1497,1212.000,0.000 
0.1500,1210.000,0.000 
0.1503,1199.000,0.000 
0.1505,1207.000,0.000 
0.1507,1192.000,0.000 
0.1510,1182.000,0.000 
0.1513,1193.000,0.000 
0.1515,1189.000,0.000 
0.1517,1193.000,0.000 
0.1520,1206.000,0.000 
0.1523,1205.000,0.000 
0.1525,1210.000,0.000 
0.1528,1214.000,0.000 
0.1530,1224.000,0.000 
0.1532,1241.000,0.000 
0.1535,1239.000,0.000 
0.1538,1242.000,0.000 
0.1540,1249.000,0.000 
0.1542,1247.000,0.000 
0.1545,1245.000,0.000 
0.1548,1243.000,0.000 
0.1550,1248.000,0.000 
0.1552,1247.000,0.000 
0.1555,1248.000,0.000 
0.1558,1238.000,0.000 
0.1560,1233.000,0.000 
0.1562,1239.000,0.000 
0.1565,1231.000,0.000 
0.1567,1231.000,0.000 
0.1570,1231.000,0.000 
0.1573,1221.000,0.000 
0.1575,1232.000,0.000 
0.1577,1235.000,0.000 
0.1580,1226.000,0.000 
0.1583,1231.000,0.000 
0.1585,1216.000,0.000 
0.1587,1216.000,0.000 
0.1590,1225.000,0.000 
0.1593,1218.000,0.000 
0.1595,1224.000,0.000 
0.1597,1216.000,0.000 
0.1600,1217.000,0.000 
0.1602,1214.000,0.000 
0.1605,1214.000,0.000 
0.1608,1208.000,0.000 
0.1610,1207.000,0.000 
0.1612,1199.000,0.000 
0.1615,1203.000,0.000 
0.1618,1196.000,0.000 
0.1620,1193.000,0.000 
0.1622,1184.000,0.000 
0.1625,1178.000,0.000 
0.1628,1175.000,0.000 
0.1630,1181.000,0.000 
0.1632,1164.000,0.000 
0.1635,1168.000,0.000 
0.1637,1168.000,0.000 
0.1640,1163.000,0.000 
0.1643,1149.000,0.000 
0.1645,1157.000,0.000 
0.1647,1145.000,0.000 
0.1650,1147.000,0.000 
0.1653,1141.000,0.000 
0.1655,1155.000,0.000 
0.1657,1138.000,0.000 
0.1660,1142.000,0.000 
0.1663,1145.000,0.000 
0.1665,1128.000,0.000 
0.1667,1126.000,0.000 
0.1670,1129.000,0.000 
0.1673,1123.000,0.000 
0.1675,1125.000,0.000 
0.1678,1118.000,0.000 
0.1680,1115.000,0.000 
0.1682,1112.000,0.000 
0.1685,1105.000,0.000 
0.1688,1103.000,0.000 
0.1690,1108.000,0.000 
0.1692,1111.000,0.000 
0.1695,1100.000,0.000 
0.1698,1109.000,0.000 
0.1700,1105.000,0.000 
0.1702,1106.000,0.000 
0.1705,1105.000,0.000 
0.1708,1104.000,0.000 
0.1710,1095.000,0.000 
0.1713,1102.000,0.000 
0.1715,1111.000,0.000 
0.1717,1097.000,0.000 
0.1720,1115.000,0.000 
0.1723,1116.000,0.000 
0.1725,1117.000,0.000 
0.1727,1132.000,0.000 
0.1730,1136.000,0.000 
0.1733,1125.000,0.000 
0.1735,1135.000,0.000 
0.1737,1134.000,0.000 
0.1740,1152.000,0.000 
0.1743,1153.000,0.000 
0.1745,1145.000,0.000 
0.1748,1150.000,0.000 
0.1750,1144.000,0.000 
0.1752,1156.000,0.000 
0.1755,1164.000,0.000 
0.1758,1148.000,0.000 
0.1760,1144.000,0.000 
0.1762,1144.000,0.000 
0.1765,1151.000,0.000 
0.1768,1151.000,0.000 
0.1770,1146.000,0.000 
0.1772,1146.000,0.000 
0.1775,1144.000,0.000 
0.1778,1137.000,0.000 
0.1780,1147.000,0.000 
0.1782,1141.000,0.000 
0.1785,1140.000,0.000 
0.1787,1128.000,0.000 
0.1790,1137.000,0.000 
0.1793,1127.000,0.000 
0.1795,1143.000,0.000 
0.1797,1125.000,0.000 
0.1800,1132.000,0.000 
0.1803,1129.000,0.000 
0.1805,1127.000,0.000 
0.1807,1119.000,0.000 
0.1810,1125.000,0.000 
0.1813,1114.000,0.000 
0.1815,1101.000,0.000 
0.1817,1097.000,0.000 
0.1820,1101.000,0.000 
0.1822,1091.000,0.000 
0.1825,1094.000,0.000 
0.1828,1082.000,0.000 
0.1830,1075.000,0.000 
0.1832,1076.000,0.000 
0.1835,1070.000,0.000 
0.1838,1062.000,0.000 
0.1840,1056.000,0.000 
0.1842,1045.000,0.000 
0.1845,1042.000,0.000 
0.1848,1032.000,0.000 
0.1850,1042.000,0.000 
0.1852,1034.000,0.000 
0.1855,1029.000,0.000 
0.1857,1015.000,0.000 
0.1860,1017.000,0.000 
0.1863,1013.000,0.000 
0.1865,992.000,0.000 
0.1867,992.000,0.000 
0.1870,983.000,0.000 
0.1873,981.000,0.000 
0.1875,981.000,0.000 
0.1877,970.000,0.000 
0.1880,983.000,0.000 
0.1883,965.000,0.000 
0.1885,961.000,0.000 
0.1887,957.000,0.000 
0.1890,964.000,0.000 
0.1893,959.000,0.000 
0.1895,952.000,0.000 
0.1898,950.000,0.000 
0.1900,946.000,0.000 
0.1902,949.000,0.000 
0.1905,949.000,0.000 
0.1908,947.000,0.000 
0.1910,954.000,0.000 
0.1912,947.000,0.000 
0.1915,949.000,0.000 
0.1918,949.000,0.000 
0.1920,946.000,0.000 
0.1922,949.000,0.000 
0.1925,949.000,0.000 
0.1928,955.000,0.000 
0.1930,953.000,0.000 
0.1933,964.000,0.000 
0.1935,965.000,0.000 
0.1937,965.000,0.000 
0.1940,971.000,0.000 
0.1943,964.000,0.000 
0.1945,966.000,0.000 
0.1947,964.000,0.000 
0.1950,973.000,0.000 
0.1953,972.000,0.000 
0.1955,983.000,0.000 
0.1957,980.000,0.000 
0.1960,993.000,0.000 
0.1963,984.000,0.000 
0.1965,989.000,0.000 
0.1968,983.000,0.000 
0.1970,1002.000,0.000 
0.1972,990.000,0.000 
0.1975,1007.000,0.000 
0.1978,993.000,0.000 
0.1980,997.000,0.000 
0.1982,1004.000,0.000 
0.1985,1016.000,0.000 
0.1988,1008.000,0.000 
0.1990,1006.000,0.000 
0.1992,1009.000,0.000 
0.1995,1009.000,0.000 
0.1998,1016.000,0.000 
0.2000,1016.000,0.000 
0.2002,1022.000,0.000 
0.2005,1026.000,0.000 
0.2007,1020.000,0.000 
0.2010,1019.000,0.000 
0.2013,1031.000,0.000 
0.2015,1029.000,0.000 
0.2017,1024.000,0.000 
0.2020,1036.000,0.000 
0.2023,1035.000,0.000 
0.2025,1029.000,0.000 
0.2027,1035.000,0.000 
0.2030,1040.000,0.000 
0.2033,1033.000,0.000 
0.2035,1027.000,0.000 
0.2037,1028.000,0.000 
0.2040,1030.000,0.000 
0.2042,1027.000,0.000 
0.2045,1016.000,0.000 
0.2048,1019.000,0.000 
0.2050,1023.000,0.000 
0.2052,1038.000,0.000 
0.2055,1037.000,0.000 
0.2058,1023.000,0.000 
0.2060,1022.000,0.000 
0.2062,1010.000,0.000 
0.2065,1027.000,0.000 
0.2068,1022.000,0.000 
0.2070,1025.000,0.000 
0.2072,1024.000,0.000 
0.2075,1033.000,0.000 
0.2077,1039.000,0.000 
0.2080,1041.000,0.000 
0.2083,1049.000,0.000 
0.2085,1042.000,0.000 
0.2087,1048.000,0.000 
0.2090,1049.000,0.000 
0.2093,1051.000,0.000 
0.2095,1057.000,0.000 
0.2097,1048.000,0.000 
0.2100,1057.000,0.000 
0.2103,1067.000,0.000 
0.2105,1061.000,0.000 
0.2107,1063.000,0.000 
0.2110,1069.000,0.000 
0.2113,1064.000,0.000 
0.2115,1085.000,0.000 
0.2118,1079.000,0.000 
0.2120,1067.000,0.000 
0.2122,1073.000,0.000 
0.2125,1086.000,0.000 
0.2128,1086.000,0.000 
0.2130,1082.000,0.000 
0.2132,1100.000,0.000 
0.2135,1091.000,0.000 
0.2138,1088.000,0.000 
0.2140,1099.000,0.000 
0.2142,1097.000,0.000 
0.2145,1101.000,0.000 
0.2148,1092.000,0.000 
0.2150,1096.000,0.000 
0.2153,1098.000,0.000 
0.2155,1087.000,0.000 
0.2157,1094.000,0.000 
0.2160,1095.000,0.000 
0.2163,1094.000,0.000 
0.2165,1105.000,0.000 
0.2167,1101.000,0.000 
0.2170,1098.000,0.000 
0.2173,1094.000,0.000 
0.2175,1106.000,0.000 
0.2177,1085.000,0.000 
0.2180,1097.000,0.000 
0.2183,1083.000,0.000 
0.2185,1095.000,0.000 
0.2188,1082.000,0.000 
0.2190,1078.000,0.000 
0.2192,1088.000,0.000 
0.2195,1089.000,0.000 
0.2198,1082.000,0.000 
0.2200,1073.000,0.000 
0.2202,1084.000,0.000 
0.2205,1072.000,0.000 
0.2208,1077.000,0.000 
0.2210,1077.000,0.000 
0.2212,1069.000,0.000 
0.2215,1075.000,0.000 
0.2218,1076.000,0.000 
0.2220,1060.000,0.000 
0.2222,1062.000,0.000 
0.2225,1066.000,0.000 
0.2227,1063.000,0.000 
0.2230,1065.000,0.000 
0.2233,1065.000,0.000 
0.2235,1062.000,0.000 
0.2237,1058.000,0.000 
0.2240,1062.000,0.000 
0.2243,1067.000,0.000 
0.2245,1067.000,0.000 
0.2247,1063.000,0.000 
0.2250,1047.000,0.000 
0.2253,1048.000,0.000 
0.2255,1058.000,0.000 
0.2257,1056.000,0.000 
0.2260,1065.000,0.000 
0.2262,1065.000,0.000 
0.2265,1058.000,0.000 
0.2268,1057.000,0.000 
0.2270,1033.000,0.000 
0.2272,1042.000,0.000 
0.2275,1041.000,0.000 
0.2278,1032.000,0.000 
0.2280,1036.000,0.000 
0.2282,1037.000,0.000 
0.2285,1030.000,0.000 
0.2288,1025.000,0.000 
0.2290,1025.000,0.000 
0.2292,1029.000,0.000 
0.2295,1029.000,0.000 
0.2298,1031.000,0.000 
0.2300,1025.000,0.000 
0.2303,1029.000,0.000 
0.2305,1033.000,0.000 
0.2307,1032.000,0.000 
0.2310,1032.000,0.000 
0.2313,1035.000,0.000 
0.2315,1043.000,0.000 
0.2317,1035.000,0.000 
0.2320,1029.000,0.000 
0.2323,1036.000,0.000 
0.2325,1036.000,0.000 
0.2327,1045.000,0.000 
0.2330,1046.000,0.000 
0.2333,1044.000,0.000 
0.2335,1049.000,0.000 
0.2338,1052.000,0.000 
0.2340,1035.000,0.000 
0.2342,1036.000,0.000 
0.2345,1036.000,0.000 
0.2348,1032.000,0.000 
0.2350,1041.000,0.000 
0.2352,1027.000,0.000 
0.2355,1020.000,0.000 
0.2358,1029.000,0.000 
0.2360,1029.000,0.000 
0.2362,1019.000,0.000 
0.2365,1015.000,0.000 
0.2368,1019.000,0.000 
0.2370,1014.000,0.000 
0.2373,1016.000,0.000 
0.2375,1000.000,0.000 
0.2377,1003.000,0.000 
0.2380,996.000,0.000 
0.2383,991.000,0.000 
0.2385,994.000,0.000 
0.2387,991.000,0.000 
0.2390,991.000,0.000 
0.2393,986.000,0.000 
0.2395,982.000,0.000 
0.2397,979.000,0.000 
0.2400,0.000,0.000 
0.2403,0.000,0.000 
0.2405,0.000,0.000 
0.2407,0.000,0.000 
0.2410,0.000,0.000 
0.2412,0.000,0.000 
0.2415,0.000,0.000 
0.2418,0.000,0.000 
0.2420,0.000,0.000 
0.2422,0.000,0.000 
0.2425,0.000,0.000 
0.2428,0.000,0.000 
0.2430,0.000,0.000 
0.2432,0.000,0.000 
0.2435,0.000,0.000 
0.2438,0.000,0.000 
0.2440,0.000,0.000 
0.2442,0.000,0.000 
0.2445,0.000,0.000 
0.2447,0.000,0.000 
0.2450,0.000,0.000 
0.2453,0.000,0.000 
0.2455,0.000,0.000 
0.2457,0.000,0.000 
0.2460,0.000,0.000 
0.2463,0.000,0.000 
0.2465,0.000,0.000 
0.2467,0.000,0.000 
0.2470,0.000,0.000 
0.2473,0.000,0.000 
0.2475,0.000,0.000 
0.2477,0.000,0.000 
0.2480,0.000,0.000 
0.2482,0.000,0.000 
0.2485,0.000,0.000 
0.2488,0.000,0.000 
0.2490,0.000,0.000 
0.2492,0.000,0.000 
0.2495,0.000,0.000 
0.2498,0.000,0.000 
0.2500,0.000,0.000 
0.2503,0.000,0.000 
0.2505,0.000,0.000 
0.2508,0.000,0.000 
0.2510,0.000,0.000 
0.2512,0.000,0.000 
0.2515,0.000,0.000 
0.2517,0.000,0.000 
0.2520,0.000,0.000 
0.2522,0.000,0.000 
0.2525,0.000,0.000 
0.2528,0.000,0.000 
0.2530,0.000,0.000 
0.2533,0.000,0.000 
0.2535,0.000,0.000 
0.2537,0.000,0.000 
0.2540,0.000,0.000 
0.2542,0.000,0.000 
0.2545,0.000,0.000 
0.2548,0.000,0.000 
0.2550,0.000,0.000 
0.2553,0.000,0.000 
0.2555,0.000,0.000 
0.2558,0.000,0.000 
0.2560,0.000,0.000 
0.2562,0.000,0.000 
0.2565,0.000,0.000 
0.2567,0.000,0.000 
0.2570,0.000,0.000 
0.2573,0.000,0.000 
0.2575,0.000,0.000 
0.2578,0.000,0.000 
0.2580,0.000,0.000 
0.2582,0.000,0.000 
0.2585,0.000,0.000 
0.2587,0.000,0.000 
0.2590,0.000,0.000 
0.2592,0.000,0.000 
0.2595,0.000,0.000 
0.2598,0.000,0.000 
0.2600,0.000,0.000 
0.2603,0.000,0.000 
0.2605,0.000,0.000 
0.2607,0.000,0.000 
0.2610,0.000,0.000 
0.2612,0.000,0.000 
0.2615,0.000,0.000 
0.2618,0.000,0.000 
0.2620,0.000,0.000 
0.2623,0.000,0.000 
0.2625,0.000,0.000 
0.2627,0.000,0.000 
0.2630,0.000,0.000 
0.2632,0.000,0.000 
0.2635,0.000,0.000 
0.2637,0.000,0.000 
0.2640,0.000,0.000 
0.2643,0.000,0.000 
0.2645,0.000,0.000 
0.2648,0.000,0.000 
0.2650,0.000,0.000 
0.2652,0.000,0.000 
0.2655,0.000,0.000 
0.2657,0.000,0.000 
0.2660,0.000,0.000 
0.2663,0.000,0.000 
0.2665,0.000,0.000 
0.2668,0.000,0.000 
0.2670,0.000,0.000 
0.2673,0.000,0.000 
0.2675,0.000,0.000 
0.2677,0.000,0.000 
0.2680,0.000,0.000 
0.2682,0.000,0.000 
0.2685,0.000,0.000 
0.2688,0.000,0.000 
0.2690,0.000,0.000 
0.2693,0.000,0.000 
0.2695,0.000,0.000 
0.2697,0.000,0.000 
0.2700,0.000,0.000 
0.2702,0.000,0.000 
0.2705,0.000,0.000 
0.2707,0.000,0.000 
0.2710,0.000,0.000 
0.2713,0.000,0.000 
0.2715,0.000,0.000 
0.2718,0.000,0.000 
0.2720,0.000,0.000 
0.2722,0.000,0.000 
0.2725,0.000,0.000 
0.2727,0.000,0.000 
0.2730,0.000,0.000 
0.2733,0.000,0.000 
0.2735,0.000,0.000 
0.2738,0.000,0.000 
0.2740,0.000,0.000 
0.2743,0.000,0.000 
0.2745,0.000,0.000 
0.2747,0.000,0.000 
0.2750,0.000,0.000 
0.2752,0.000,0.000 
0.2755,0.000,0.000 
0.2758,0.000,0.000 
0.2760,0.000,0.000 
0.2763,0.000,0.000 
0.2765,0.000,0.000 
0.2767,0.000,0.000 
0.2770,0.000,0.000 
0.2772,0.000,0.000 
0.2775,0.000,0.000 
0.2777,0.000,0.000 
0.2780,0.000,0.000 
0.2783,0.000,0.000 
0.2785,0.000,0.000 
0.2788,0.000,0.000 
0.2790,0.000,0.000 
0.2792,0.000,0.000 
0.2795,0.000,0.000 
0.2797,0.000,0.000 
0.2800,0.000,0.000 
0.2803,0.000,0.000 
0.2805,0.000,0.000 
0.2808,0.000,0.000 
0.2810,0.000,0.000 
0.2812,0.000,0.000 
0.2815,0.000,0.000 
0.2817,0.000,0.000 
0.2820,0.000,0.000 
0.2822,0.000,0.000 
0.2825,0.000,0.000 
0.2828,0.000,0.000 
0.2830,0.000,0.000 
0.2833,0.000,0.000 
0.2835,0.000,0.000 
0.2837,0.000,0.000 
0.2840,0.000,0.000 
0.2842,0.000,0.000 
0.2845,0.000,0.000 
0.2848,0.000,0.000 
0.2850,0.000,0.000 
0.2853,0.000,0.000 
0.2855,0.000,0.000 
0.2858,0.000,0.000 
0.2860,0.000,0.000 
0.2862,0.000,0.000 
0.2865,0.000,0.000 
0.2867,0.000,0.000 
0.2870,0.000,0.000 
0.2873,0.000,0.000 
0.2875,0.000,0.000 
0.2878,0.000,0.000 
0.2880,0.000,0.000 
0.2882,0.000,0.000 
0.2885,0.000,0.000 
0.2887,0.000,0.000 
0.2890,0.000,0.000 
0.2892,0.000,0.000 
0.2895,0.000,0.000 
0.2898,0.000,0.000 
0.2900,0.000,0.000 
0.2903,0.000,0.000 
0.2905,0.000,0.000 
0.2907,0.000,0.000 
0.2910,0.000,0.000 
0.2912,0.000,0.000 
0.2915,0.000,0.000 
0.2918,0.000,0.000 
0.2920,0.000,0.000 
0.2923,0.000,0.000 
0.2925,0.000,0.000 
0.2928,0.000,0.000 
0.2930,0.000,0.000 
0.2932,0.000,0.000 
0.2935,0.000,0.000 
0.2937,0.000,0.000 
0.2940,0.000,0.000 
0.2943,0.000,0.000 
0.2945,0.000,0.000 
0.2948,0.000,0.000 
0.2950,0.000,0.000 
0.2952,0.000,0.000 
0.2955,0.000,0.000 
0.2957,0.000,0.000 
0.2960,0.000,0.000 
0.2962,0.000,0.000 
0.2965,0.000,0.000 
0.2968,0.000,0.000 
0.2970,0.000,0.000 
0.2973,0.000,0.000 
0.2975,0.000,0.000 
0.2977,0.000,0.000 
0.2980,0.000,0.000 
0.2982,0.000,0.000 
0.2985,0.000,0.000 
0.2988,0.000,0.000 
0.2990,0.000,0.000 
0.2993,0.000,0.000 
0.2995,0.000,0.000 
0.2998,0.000,0.000 
0.3000,0.000,0.000 
0.3002,0.000,0.000 
0.3005,0.000,0.000 
0.3007,0.000,0.000 
0.3010,0.000,0.000 
0.3013,0.000,0.000 
0.3015,0.000,0.000 
0.3018,0.000,0.000 
0.3020,0.000,0.000 
0.3022,0.000,0.000 
0.3025,0.000,0.000 
0.3027,0.000,0.000 
0.3030,0.000,0.000 
0.3033,0.000,0.000 
0.3035,0.000,0.000 
0.3038,0.000,0.000 
0.3040,0.000,0.000 
0.3043,0.000,0.000 
0.3045,0.000,0.000 
0.3047,0.000,0.000 
0.3050,0.000,0.000 
0.3052,0.000,0.000 
0.3055,0.000,0.000 
0.3058,0.000,0.000 
0.3060,0.000,0.000 
0.3063,0.000,0.000 
0.3065,0.000,0.000 
0.3067,0.000,0.000 
0.3070,0.000,0.000 
0.3072,0.000,0.000 
0.3075,0.000,0.000 
0.3077,0.000,0.000 
0.3080,0.000,0.000 
0.3083,0.000,0.000 
0.3085,0.000,0.000 
0.3088,0.000,0.000 
0.3090,0.000,0.000 
0.3092,0.000,0.000 
0.3095,0.000,0.000 
0.3097,0.000,0.000 
0.3100,0.000,0.000 
0.3103,0.000,0.000 
0.3105,0.000,0.000 
0.3108,0.000,0.000 
0.3110,0.000,0.000 
0.3113,0.000,0.000 
0.3115,0.000,0.000 
0.3117,0.000,0.000 
0.3120,0.000,0.000 
0.3122,0.000,0.000 
0.3125,0.000,0.000 
0.3128,0.000,0.000 
0.3130,0.000,0.000 
0.3133,0.000,0.000 
0.3135,0.000,0.000 
0.3137,0.000,0.000 
0.3140,0.000,0.000 
0.3142,0.000,0.000 
0.3145,0.000,0.000 
0.3147,0.000,0.000 
0.3150,0.000,0.000 
0.3153,0.000,0.000 
0.3155,0.000,0.000 
0.3158,0.000,0.000 
0.3160,0.000,0.000 
0.3162,0.000,0.000 
0.3165,0.000,0.000 
0.3167,0.000,0.000 
0.3170,0.000,0.000 
0.3173,0.000,0.000 
0.3175,0.000,0.000 
0.3178,0.000,0.000 
0.3180,0.000,0.000 
0.3183,0.000,0.000 
0.3185,0.000,0.000 
0.3187,0.000,0.000 
0.3190,0.000,0.000 
0.3192,0.000,0.000 
0.3195,0.000,0.000 
0.3198,0.000,0.000 
0.3200,0.000,0.000 
0.3203,0.000,0.000 
0.3205,0.000,0.000 
0.3207,0.000,0.000 
0.3210,0.000,0.000 
0.3212,0.000,0.000 
0.3215,0.000,0.000 
0.3217,0.000,0.000 
0.3220,0.000,0.000 
0.3223,0.000,0.000 
0.3225,0.000,0.000 
0.3228,0.000,0.000 
0.3230,0.000,0.000 
0.3232,0.000,0.000 
0.3235,0.000,0.000 
0.3237,0.000,0.000 
0.3240,0.000,0.000 
0.3243,0.000,0.000 
0.3245,0.000,0.000 
0.3248,0.000,0.000 
0.3250,0.000,0.000 
0.3252,0.000,0.000 
0.3255,0.000,0.000 
0.3257,0.000,0.000 
0.3260,0.000,0.000 
0.3262,0.000,0.000 
0.3265,0.000,0.000 
0.3268,0.000,0.000 
0.3270,0.000,0.000 
0.3273,0.000,0.000 
0.3275,0.000,0.000 
0.3277,0.000,0.000 
0.3280,0.000,0.000 
0.3282,0.000,0.000 
0.3285,0.000,0.000 
0.3288,0.000,0.000 
0.3290,0.000,0.000 
0.3293,0.000,0.000 
0.3295,0.000,0.000 
0.3298,0.000,0.000 
0.3300,0.000,0.000 
0.3302,0.000,0.000 
0.3305,0.000,0.000 
0.3307,0.000,0.000 
0.3310,0.000,0.000 
0.3313,0.000,0.000 
0.3315,0.000,0.000 
0.3318,0.000,0.000 
0.3320,0.000,0.000 
0.3322,0.000,0.000 
0.3325,0.000,0.000 
0.3327,0.000,0.000 
0.3330,0.000,0.000 
0.3332,0.000,0.000 
0.3335,0.000,0.000 
0.3338,0.000,0.000 
0.3340,0.000,0.000 
0.3343,0.000,0.000 
0.3345,0.000,0.000 
0.3347,0.000,0.000 
0.3350,0.000,0.000 
0.3352,0.000,0.000 
0.3355,0.000,0.000 
0.3358,0.000,0.000 
0.3360,0.000,0.000 
0.3363,0.000,0.000 
0.3365,0.000,0.000 
0.3368,0.000,0.000 
0.3370,0.000,0.000 
0.3372,0.000,0.000 
0.3375,0.000,0.000 
0.3377,0.000,0.000 
0.3380,0.000,0.000 
0.3383,0.000,0.000 
0.3385,0.000,0.000 
0.3388,0.000,0.000 
0.3390,0.000,0.000 
0.3392,0.000,0.000 
0.3395,0.000,0.000 
0.3397,0.000,0.000 
0.3400,0.000,0.000 
0.3402,0.000,0.000 
0.3405,0.000,0.000 
0.3408,0.000,0.000 
0.3410,0.000,0.000 
0.3413,0.000,0.000 
0.3415,0.000,0.000 
0.3417,0.000,0.000 
0.3420,0.000,0.000 
0.3422,0.000,0.000 
0.3425,0.000,0.000 
0.3428,0.000,0.000 
0.3430,0.000,0.000 
0.3433,0.000,0.000 
0.3435,0.000,0.000 
0.3438,0.000,0.000 
0.3440,0.000,0.000 
0.3442,0.000,0.000 
0.3445,0.000,0.000 
0.3447,0.000,0.000 
0.3450,0.000,0.000 
0.3453,0.000,0.000 
0.3455,0.000,0.000 
0.3458,0.000,0.000 
0.3460,0.000,0.000 
0.3462,0.000,0.000 
0.3465,0.000,0.000 
0.3467,0.000,0.000 
0.3470,0.000,0.000 
0.3473,0.000,0.000 
0.3475,0.000,0.000 
0.3478,0.000,0.000 
0.3480,0.000,0.000 
0.3483,0.000,0.000 
0.3485,0.000,0.000 
0.3487,0.000,0.000 
0.3490,0.000,0.000 
0.3492,0.000,0.000 
0.3495,0.000,0.000 
0.3498,0.000,0.000 
0.3500,0.000,0.000 
0.3503,0.000,0.000 
0.3505,0.000,0.000 
0.3507,0.000,0.000 
0.3510,0.000,0.000 
0.3512,0.000,0.000 
0.3515,0.000,0.000 
0.3517,0.000,0.000 
0.3520,0.000,0.000 
0.3523,0.000,0.000 
0.3525,0.000,0.000 
0.3528,0.000,0.000 
0.3530,0.000,0.000 
0.3532,0.000,0.000 
0.3535,0.000,0.000 
0.3537,0.000,0.000 
0.3540,0.000,0.000 
0.3543,0.000,0.000 
0.3545,0.000,0.000 
0.3548,0.000,0.000 
0.3550,0.000,0.000 
0.3553,0.000,0.000 
0.3555,0.000,0.000 
0.3557,0.000,0.000 
0.3560,0.000,0.000 
0.3562,0.000,0.000 
0.3565,0.000,0.000 
0.3568,0.000,0.000 
0.3570,0.000,0.000 
0.3573,0.000,0.000 
0.3575,0.000,0.000 
0.3577,0.000,0.000 
0.3580,0.000,0.000 
0.3582,0.000,0.000 
0.3585,0.000,0.000 
0.3587,0.000,0.000 
0.3590,0.000,0.000 
0.3593,0.000,0.000 
0.3595,0.000,0.000 
0.3598,0.000,0.000 
0.3600,0.000,0.000 
0.3602,0.000,0.000 
0.3605,0.000,0.000 
0.3607,0.000,0.000 
0.3610,0.000,0.000 
0.3613,0.000,0.000 
0.3615,0.000,0.000 
0.3618,0.000,0.000 
0.3620,0.000,0.000 
0.3623,0.000,0.000 
0.3625,0.000,0.000 
0.3627,0.000,0.000 
0.3630,0.000,0.000 
0.3632,0.000,0.000 
0.3635,0.000,0.000 
0.3638,0.000,0.000 
0.3640,0.000,0.000 
0.3643,0.000,0.000 
0.3645,0.000,0.000 
0.3647,0.000,0.000 
0.3650,0.000,0.000 
0.3652,0.000,0.000 
0.3655,0.000,0.000 
0.3658,0.000,0.000 
0.3660,0.000,0.000 
0.3663,0.000,0.000 
0.3665,0.000,0.000 
0.3668,0.000,0.000 
0.3670,0.000,0.000 
0.3672,0.000,0.000 
0.3675,0.000,0.000 
0.3677,0.000,0.000 
0.3680,0.000,0.000 
0.3683,0.000,0.000 
0.3685,0.000,0.000 
0.3688,0.000,0.000 
0.3690,0.000,0.000 
0.3692,0.000,0.000 
0.3695,0.000,0.000 
0.3697,0.000,0.000 
0.3700,0.000,0.000 
0.3702,0.000,0.000 
0.3705,0.000,0.000 
0.3708,0.000,0.000 
0.3710,0.000,0.000 
0.3713,0.000,0.000 
0.3715,0.000,0.000 
0.3717,0.000,0.000 
0.3720,0.000,0.000 
0.3722,0.000,0.000 
0.3725,0.000,0.000 
0.3728,0.000,0.000 
0.3730,0.000,0.000 
0.3733,0.000,0.000 
0.3735,0.000,0.000 
0.3738,0.000,0.000 
0.3740,0.000,0.000 
0.3742,0.000,0.000 
0.3745,0.000,0.000 
0.3747,0.000,0.000 
0.3750,0.000,0.000 
0.3753,0.000,0.000 
0.3755,0.000,0.000 
0.3758,0.000,0.000 
0.3760,0.000,0.000 
0.3762,0.000,0.000 
0.3765,0.000,0.000 
0.3767,0.000,0.000 
0.3770,0.000,0.000 
0.3772,0.000,0.000 
0.3775,0.000,0.000 
0.3778,0.000,0.000 
0.3780,0.000,0.000 
0.3783,0.000,0.000 
0.3785,0.000,0.000 
0.3787,0.000,0.000 
0.3790,0.000,0.000 
0.3792,0.000,0.000 
0.3795,0.000,0.000 
0.3798,0.000,0.000 
0.3800,0.000,0.000 
0.3803,0.000,0.000 
0.3805,0.000,0.000 
0.3808,0.000,0.000 
0.3810,0.000,0.000 
0.3812,0.000,0.000 
0.3815,0.000,0.000 
0.3817,0.000,0.000 
0.3820,0.000,0.000 
0.3823,0.000,0.000 
0.3825,0.000,0.000 
0.3828,0.000,0.000 
0.3830,0.000,0.000 
0.3832,0.000,0.000 
0.3835,0.000,0.000 
0.3837,0.000,0.000 
0.3840,0.000,0.000 
0.3842,0.000,0.000 
0.3845,0.000,0.000 
0.3848,0.000,0.000 
0.3850,0.000,0.000 
0.3853,0.000,0.000 
0.3855,0.000,0.000 
0.3857,0.000,0.000 
0.3860,0.000,0.000 
0.3862,0.000,0.000 
0.3865,0.000,0.000 
0.3868,0.000,0.000 
0.3870,0.000,0.000 
0.3873,0.000,0.000 
0.3875,0.000,0.000 
0.3877,0.000,0.000 
0.3880,0.000,0.000 
0.3882,0.000,0.000 
0.3885,0.000,0.000 
0.3887,0.000,0.000 
0.3890,0.000,0.000 
0.3893,0.000,0.000 
0.3895,0.000,0.000 
0.3898,0.000,0.000 
0.3900,0.000,0.000 
0.3902,0.000,0.000 
0.3905,0.000,0.000 
0.3907,0.000,0.000 
0.3910,0.000,0.000 
0.3913,0.000,0.000 
0.3915,0.000,0.000 
0.3918,0.000,0.000 
0.3920,0.000,0.000 
0.3923,0.000,0.000 
0.3925,0.000,0.000 
0.3927,0.000,0.000 
0.3930,0.000,0.000 
0.3932,0.000,0.000 
0.3935,0.000,0.000 
0.3938,0.000,0.000 
0.3940,0.000,0.000 
0.3943,0.000,0.000 
0.3945,0.000,0.000 
0.3947,0.000,0.000 
0.3950,0.000,0.000 
0.3952,0.000,0.000 
0.3955,0.000,0.000 
0.3957,0.000,0.000 
0.3960,0.000,0.000 
0.3963,0.000,0.000 
0.3965,0.000,0.000 
0.3968,0.000,0.000 
0.3970,0.000,0.000 
0.3972,0.000,0.000 
0.3975,0.000,0.000 
0.3977,0.000,0.000 
0.3980,0.000,0.000 
0.3983,0.000,0.000 
0.3985,0.000,0.000 
0.3988,0.000,0.000 
0.3990,0.000,0.000 
0.3993,0.000,0.000 
0.3995,0.000,0.000 
0.3997,0.000,0.000 
0.4000,0.000,0.000 
0.4002,0.000,0.000 
0.4005,0.000,0.000 
0.4008,0.000,0.000 
0.4010,0.000,0.000 
0.4013,0.000,0.000 
0.4015,0.000,0.000 
0.4017,0.000,0.000 
0.4020,0.000,0.000 
0.4022,0.000,0.000 
0.4025,0.000,0.000 
0.4027,0.000,0.000 
0.4030,0.000,0.000 
0.4033,0.000,0.000 
0.4035,0.000,0.000 
0.4038,0.000,0.000 
0.4040,0.000,0.000 
0.4042,0.000,0.000 
0.4045,0.000,0.000 
0.4047,0.000,0.000 
0.4050,0.000,0.000 
0.4053,0.000,0.000 
0.4055,0.000,0.000 
0.4058,0.000,0.000 
0.4060,0.000,0.000 
0.4062,0.000,0.000 
0.4065,0.000,0.000 
0.4067,0.000,0.000 
0.4070,0.000,0.000 
0.4072,0.000,0.000 
0.4075,0.000,0.000 
0.4078,0.000,0.000 
0.4080,0.000,0.000 
0.4083,0.000,0.000 
0.4085,0.000,0.000 
0.4087,0.000,0.000 
0.4090,0.000,0.000 
0.4092,0.000,0.000 
0.4095,0.000,0.000 
0.4098,0.000,0.000 
0.4100,0.000,0.000 
0.4103,0.000,0.000 
0.4105,0.000,0.000 
0.4108,0.000,0.000 
0.4110,0.000,0.000 
0.4112,0.000,0.000 
0.4115,0.000,0.000 
0.4117,0.000,0.000 
0.4120,0.000,0.000 
0.4123,0.000,0.000 
0.4125,0.000,0.000 
0.4128,0.000,0.000 
0.4130,0.000,0.000 
0.4132,0.000,0.000 
0.4135,0.000,0.000 
0.4137,0.000,0.000 
0.4140,0.000,0.000 
0.4142,0.000,0.000 
0.4145,0.000,0.000 
0.4148,0.000,0.000 
0.4150,0.000,0.000 
0.4153,0.000,0.000 
0.4155,0.000,0.000 
0.4157,0.000,0.000 
0.4160,0.000,0.000 
0.4162,0.000,0.000 
0.4165,0.000,0.000 
0.4168,0.000,0.000 
0.4170,0.000,0.000 
0.4173,0.000,0.000 
0.4175,0.000,0.000 
0.4178,0.000,0.000 
0.4180,0.000,0.000 
0.4182,0.000,0.000 
0.4185,0.000,0.000 
0.4187,0.000,0.000 
0.4190,0.000,0.000 
0.4193,0.000,0.000 
0.4195,0.000,0.000 
0.4198,0.000,0.000 
0.4200,0.000,0.000 
0.4202,0.000,0.000 
0.4205,0.000,0.000 
0.4207,0.000,0.000 
0.4210,0.000,0.000 
0.4212,0.000,0.000 
0.4215,0.000,0.000 
0.4218,0.000,0.000 
0.4220,0.000,0.000 
0.4223,0.000,0.000 
0.4225,0.000,0.000 
0.4227,0.000,0.000 
0.4230,0.000,0.000 
0.4232,0.000,0.000 
0.4235,0.000,0.000 
0.4238,0.000,0.000 
0.4240,0.000,0.000 
0.4243,0.000,0.000 
0.4245,0.000,0.000 
0.4248,0.000,0.000 
0.4250,0.000,0.000 
0.4252,0.000,0.000 
0.4255,0.000,0.000 
0.4257,0.000,0.000 
0.4260,0.000,0.000 
0.4263,0.000,0.000 
0.4265,0.000,0.000 
0.4268,0.000,0.000 
0.4270,0.000,0.000 
0.4272,0.000,0.000 
0.4275,0.000,0.000 
0.4277,0.000,0.000 
0.4280,0.000,0.000 
0.4283,0.000,0.000 
0.4285,0.000,0.000 
0.4288,0.000,0.000 
0.4290,0.000,0.000 
0.4293,0.000,0.000 
0.4295,0.000,0.000 
0.4297,0.000,0.000 
0.4300,0.000,0.000 
0.4302,0.000,0.000 
0.4305,0.000,0.000 
0.4308,0.000,0.000 
0.4310,0.000,0.000 
0.4313,0.000,0.000 
0.4315,0.000,0.000 
0.4317,0.000,0.000 
0.4320,0.000,0.000 
0.4322,0.000,0.000 
0.4325,0.000,0.000 
0.4327,0.000,0.000 
0.4330,0.000,0.000 
0.4333,0.000,0.000 
0.4335,0.000,0.000 
0.4338,0.000,0.000 
0.4340,0.000,0.000 
0.4342,0.000,0.000 
0.4345,0.000,0.000 
0.4347,0.000,0.000 
0.4350,0.000,0.000 
0.4353,0.000,0.000 
0.4355,0.000,0.000 
0.4358,0.000,0.000 
0.4360,0.000,0.000 
0.4363,0.000,0.000 
0.4365,0.000,0.000 
0.4367,0.000,0.000 
0.4370,0.000,0.000 
0.4372,0.000,0.000 
0.4375,0.000,0.000 
0.4378,0.000,0.000 
0.4380,0.000,0.000 
0.4383,0.000,0.000 
0.4385,0.000,0.000 
0.4387,0.000,0.000 
0.4390,0.000,0.000 
0.4392,0.000,0.000 
0.4395,0.000,0.000 
0.4397,0.000,0.000 
0.4400,0.000,0.000 
0.4403,0.000,0.000 
0.4405,0.000,0.000 
0.4408,0.000,0.000 
0.4410,0.000,0.000 
0.4412,0.000,0.000 
0.4415,0.000,0.000 
0.4417,0.000,0.000 
0.4420,0.000,0.000 
0.4423,0.000,0.000 
0.4425,0.000,0.000 
0.4428,0.000,0.000 
0.4430,0.000,0.000 
0.4433,0.000,0.000 
0.4435,0.000,0.000 
0.4437,0.000,0.000 
0.4440,0.000,0.000 
0.4442,0.000,0.000 
0.4445,0.000,0.000 
0.4448,0.000,0.000 
0.4450,0.000,0.000 
0.4453,0.000,0.000 
0.4455,0.000,0.000 
0.4457,0.000,0.000 
0.4460,0.000,0.000 
0.4462,0.000,0.000 
0.4465,0.000,0.000 
0.4467,0.000,0.000 
0.4470,0.000,0.000 
0.4473,0.000,0.000 
0.4475,0.000,0.000 
0.4478,0.000,0.000 
0.4480,0.000,0.000 
0.4482,0.000,0.000 
0.4485,0.000,0.000 
0.4487,0.000,0.000 
0.4490,0.000,0.000 
0.4493,0.000,0.000 
0.4495,0.000,0.000 
0.4498,0.000,0.000 
0.4500,0.000,0.000 
0.4502,0.000,0.000 
0.4505,0.000,0.000 
0.4507,0.000,0.000 
0.4510,0.000,0.000 
0.4512,0.000,0.000 
0.4515,0.000,0.000 
0.4518,0.000,0.000 
0.4520,0.000,0.000 
0.4523,0.000,0.000 
0.4525,0.000,0.000 
0.4527,0.000,0.000 
0.4530,0.000,0.000 
0.4532,0.000,0.000 
0.4535,0.000,0.000 
0.4538,0.000,0.000 
0.4540,0.000,0.000 
0.4543,0.000,0.000 
0.4545,0.000,0.000 
0.4548,0.000,0.000 
0.4550,0.000,0.000 
0.4552,0.000,0.000 
0.4555,0.000,0.000 
0.4557,0.000,0.000 
0.4560,0.000,0.000 
0.4563,0.000,0.000 
0.4565,0.000,0.000 
0.4568,0.000,0.000 
0.4570,0.000,0.000 
0.4572,0.000,0.000 
0.4575,0.000,0.000 
0.4577,0.000,0.000 
0.4580,0.000,0.000 
0.4582,0.000,0.000 
0.4585,0.000,0.000 
0.4588,0.000,0.000 
0.4590,0.000,0.000 
0.4593,0.000,0.000 
0.4595,0.000,0.000 
0.4597,0.000,0.000 
0.4600,0.000,0.000 
0.4602,0.000,0.000 
0.4605,0.000,0.000 
0.4608,0.000,0.000 
0.4610,0.000,0.000 
0.4613,0.000,0.000 
0.4615,0.000,0.000 
0.4618,0.000,0.000 
0.4620,0.000,0.000 
0.4622,0.000,0.000 
0.4625,0.000,0.000 
0.4627,0.000,0.000 
0.4630,0.000,0.000 
0.4633,0.000,0.000 
0.4635,0.000,0.000 
0.4638,0.000,0.000 
0.4640,0.000,0.000 
0.4642,0.000,0.000 
0.4645,0.000,0.000 
0.4647,0.000,0.000 
0.4650,0.000,0.000 
0.4652,0.000,0.000 
0.4655,0.000,0.000 
0.4658,0.000,0.000 
0.4660,0.000,0.000 
0.4663,0.000,0.000 
0.4665,0.000,0.000 
0.4667,0.000,0.000 
0.4670,0.000,0.000 
0.4672,0.000,0.000 
0.4675,0.000,0.000 
0.4678,0.000,0.000 
0.4680,0.000,0.000 
0.4683,0.000,0.000 
0.4685,0.000,0.000 
0.4688,0.000,0.000 
0.4690,0.000,0.000 
0.4692,0.000,0.000 
0.4695,0.000,0.000 
0.4697,0.000,0.000 
0.4700,0.000,0.000 
0.4703,0.000,0.000 
0.4705,0.000,0.000 
0.4708,0.000,0.000 
0.4710,0.000,0.000 
0.4712,0.000,0.000 
0.4715,0.000,0.000 
0.4717,0.000,0.000 
0.4720,0.000,0.000 
0.4723,0.000,0.000 
0.4725,0.000,0.000 
0.4728,0.000,0.000 
0.4730,0.000,0.000 
0.4733,0.000,0.000 
0.4735,0.000,0.000 
0.4737,0.000,0.000 
0.4740,0.000,0.000 
0.4742,0.000,0.000 
0.4745,0.000,0.000 
0.4748,0.000,0.000 
0.4750,0.000,0.000 
0.4753,0.000,0.000 
0.4755,0.000,0.000 
0.4757,0.000,0.000 
0.4760,0.000,0.000 
0.4762,0.000,0.000 
0.4765,0.000,0.000 
0.4767,0.000,0.000 
0.4770,0.000,0.000 
0.4773,0.000,0.000 
0.4775,0.000,0.000 
0.4778,0.000,0.000 
0.4780,0.000,0.000 
0.4782,0.000,0.000 
0.4785,0.000,0.000 
0.4787,0.000,0.000 
0.4790,0.000,0.000 
0.4793,0.000,0.000 
0.4795,0.000,0.000 
0.4798,0.000,0.000 
0.4800,0.000,0.000 
0.4803,0.000,0.000 
0.4805,0.000,0.000 
0.4807,0.000,0.000 
0.4810,0.000,0.000 
0.4812,0.000,0.000 
0.4815,0.000,0.000 
0.4818,0.000,0.000 
0.4820,0.000,0.000 
0.4823,0.000,0.000 
0.4825,0.000,0.000 
0.4827,0.000,0.000 
0.4830,0.000,0.000 
0.4832,0.000,0.000 
0.4835,0.000,0.000 
0.4837,0.000,0.000 
0.4840,0.000,0.000 
0.4843,0.000,0.000 
0.4845,0.000,0.000 
0.4848,0.000,0.000 
0.4850,0.000,0.000 
0.4852,0.000,0.000 
0.4855,0.000,0.000 
0.4857,0.000,0.000 
0.4860,0.000,0.000 
0.4863,0.000,0.000 
0.4865,0.000,0.000 
0.4868,0.000,0.000 
0.4870,0.000,0.000 
0.4873,0.000,0.000 
0.4875,0.000,0.000 
0.4877,0.000,0.000 
0.4880,0.000,0.000 
0.4882,0.000,0.000 
0.4885,0.000,0.000 
0.4888,0.000,0.000 
0.4890,0.000,0.000 
0.4893,0.000,0.000 
0.4895,0.000,0.000 
0.4897,0.000,0.000 
0.4900,0.000,0.000 
0.4902,0.000,0.000 
0.4905,0.000,0.000 
0.4908,0.000,0.000 
0.4910,0.000,0.000 
0.4913,0.000,0.000 
0.4915,0.000,0.000 
0.4918,0.000,0.000 
0.4920,0.000,0.000 
0.4922,0.000,0.000 
0.4925,0.000,0.000 
0.4927,0.000,0.000 
0.4930,0.000,0.000 
0.4933,0.000,0.000 
0.4935,0.000,0.000 
0.4938,0.000,0.000 
0.4940,0.000,0.000 
0.4942,0.000,0.000 
0.4945,0.000,0.000 
0.4947,0.000,0.000 
0.4950,0.000,0.000 
0.4952,0.000,0.000 
0.4955,0.000,0.000 
0.4958,0.000,0.000 
0.4960,0.000,0.000 
0.4963,0.000,0.000 
0.4965,0.000,0.000 
0.4967,0.000,0.000 
0.4970,0.000,0.000 
0.4972,0.000,0.000 
0.4975,0.000,0.000 
0.4978,0.000,0.000 
0.4980,0.000,0.000 
0.4983,0.000,0.000 
0.4985,0.000,0.000 
0.4988,0.000,0.000 
0.4990,0.000,0.000 
0.4992,0.000,0.000 
0.4995,0.000,0.000 
0.4997,0.000,0.000 
0.5000,0.000,0.000 
0.5002,0.000,0.000 
0.5005,0.000,0.000 
0.5008,0.000,0.000 
0.5010,0.000,0.000 
0.5013,0.000,0.000 
0.5015,0.000,0.000 
0.5017,0.000,0.000 
0.5020,0.000,0.000 
0.5023,0.000,0.000 
0.5025,0.000,0.000 
0.5027,0.000,0.000 
0.5030,0.000,0.000 
0.5033,0.000,0.000 
0.5035,0.000,0.000 
0.5038,0.000,0.000 
0.5040,0.000,0.000 
0.5042,0.000,0.000 
0.5045,0.000,0.000 
0.5048,0.000,0.000 
0.5050,0.000,0.000 
0.5052,0.000,0.000 
0.5055,0.000,0.000 
0.5058,0.000,0.000 
0.5060,0.000,0.000 
0.5063,0.000,0.000 
0.5065,0.000,0.000 
0.5067,0.000,0.000 
0.5070,0.000,0.000 
0.5073,0.000,0.000 
0.5075,0.000,0.000 
0.5077,0.000,0.000 
0.5080,0.000,0.000 
0.5082,0.000,0.000 
0.5085,0.000,0.000 
0.5088,0.000,0.000 
0.5090,0.000,0.000 
0.5092,0.000,0.000 
0.5095,0.000,0.000 
0.5098,0.000,0.000 
0.5100,0.000,0.000 
0.5102,0.000,0.000 
0.5105,0.000,0.000 
0.5107,0.000,0.000 
0.5110,0.000,0.000 
0.5113,0.000,0.000 
0.5115,0.000,0.000 
0.5117,0.000,0.000 
0.5120,0.000,0.000 
0.5123,0.000,0.000 
0.5125,0.000,0.000 
0.5128,0.000,0.000 
0.5130,0.000,0.000 
0.5132,0.000,0.000 
0.5135,0.000,0.000 
0.5138,0.000,0.000 
0.5140,0.000,0.000 
0.5142,0.000,0.000 
0.5145,0.000,0.000 
0.5148,0.000,0.000 
0.5150,0.000,0.000 
0.5153,0.000,0.000 
0.5155,0.000,0.000 
0.5157,0.000,0.000 
0.5160,0.000,0.000 
0.5163,0.000,0.000 
0.5165,0.000,0.000 
0.5167,0.000,0.000 
0.5170,0.000,0.000 
0.5173,0.000,0.000 
0.5175,0.000,0.000 
0.5178,0.000,0.000 
0.5180,0.000,0.000 
0.5182,0.000,0.000 
0.5185,0.000,0.000 
0.5188,0.000,0.000 
0.5190,0.000,0.000 
0.5192,0.000,0.000 
0.5195,0.000,0.000 
0.5197,0.000,0.000 
0.5200,0.000,0.000 
0.5203,0.000,0.000 
0.5205,0.000,0.000 
0.5207,0.000,0.000 
0.5210,0.000,0.000 
0.5213,0.000,0.000 
0.5215,0.000,0.000 
0.5217,0.000,0.000 
0.5220,0.000,0.000 
0.5222,0.000,0.000 
0.5225,0.000,0.000 
0.5228,0.000,0.000 
0.5230,0.000,0.000 
0.5232,0.000,0.000 
0.5235,0.000,0.000 
0.5238,0.000,0.000 
0.5240,0.000,0.000 
0.5242,0.000,0.000 
0.5245,0.000,0.000 
0.5247,0.000,0.000 
0.5250,0.000,0.000 
0.5253,0.000,0.000 
0.5255,0.000,0.000 
0.5257,0.000,0.000 
0.5260,0.000,0.000 
0.5263,0.000,0.000 
0.5265,0.000,0.000 
0.5268,0.000,0.000 
0.5270,0.000,0.000 
0.5272,0.000,0.000 
0.5275,0.000,0.000 
0.5278,0.000,0.000 
0.5280,0.000,0.000 
0.5282,0.000,0.000 
0.5285,0.000,0.000 
0.5288,0.000,0.000 
0.5290,0.000,0.000 
0.5293,0.000,0.000 
0.5295,0.000,0.000 
0.5297,0.000,0.000 
0.5300,0.000,0.000 
0.5303,0.000,0.000 
0.5305,0.000,0.000 
0.5307,0.000,0.000 
0.5310,0.000,0.000 
0.5312,0.000,0.000 
0.5315,0.000,0.000 
0.5318,0.000,0.000 
0.5320,0.000,0.000 
0.5322,0.000,0.000 
0.5325,0.000,0.000 
0.5328,0.000,0.000 
0.5330,0.000,0.000 
0.5332,0.000,0.000 
0.5335,0.000,0.000 
0.5337,0.000,0.000 
0.5340,0.000,0.000 
0.5343,0.000,0.000 
0.5345,0.000,0.000 
0.5347,0.000,0.000 
0.5350,0.000,0.000 
0.5353,0.000,0.000 
0.5355,0.000,0.000 
0.5357,0.000,0.000 
0.5360,0.000,0.000 
0.5362,0.000,0.000 
0.5365,0.000,0.000 
0.5368,0.000,0.000 
0.5370,0.000,0.000 
0.5372,0.000,0.000 
0.5375,0.000,0.000 
0.5378,0.000,0.000 
0.5380,0.000,0.000 
0.5383,0.000,0.000 
0.5385,0.000,0.000 
0.5387,0.000,0.000 
0.5390,0.000,0.000 
0.5393,0.000,0.000 
0.5395,0.000,0.000 
0.5397,0.000,0.000 
0.5400,0.000,0.000 
0.5403,0.000,0.000 
0.5405,0.000,0.000 
0.5408,0.000,0.000 
0.5410,0.000,0.000 
0.5412,0.000,0.000 
0.5415,0.000,0.000 
0.5418,0.000,0.000 
0.5420,0.000,0.000 
0.5422,0.000,0.000 
0.5425,0.000,0.000 
0.5428,0.000,0.000 
0.5430,0.000,0.000 
0.5433,0.000,0.000 
0.5435,0.000,0.000 
0.5437,0.000,0.000 
0.5440,0.000,0.000 
0.5443,0.000,0.000 
0.5445,0.000,8.798 
0.5447,0.000,9.775 
0.5450,0.000,8.798 
0.5452,0.000,8.798 
0.5455,0.000,8.798 
0.5458,0.000,9.775 
0.5460,0.000,8.798 
0.5462,0.000,8.798 
0.5465,0.000,8.798 
0.5468,0.000,9.775 
0.5470,0.000,9.775 
0.5472,0.000,9.775 
0.5475,0.000,9.775 
0.5477,0.000,8.798 
0.5480,0.000,9.775 
0.5483,0.000,8.798 
0.5485,0.000,9.775 
0.5487,0.000,9.775 
0.5490,0.000,9.775 
0.5493,0.000,11.730 
0.5495,0.000,12.708 
0.5497,0.000,12.708 
0.5500,0.000,12.708 
0.5502,0.000,11.730 
0.5505,0.000,11.730 
0.5508,0.000,11.730 
0.5510,0.000,11.730 
0.5512,0.000,11.730 
0.5515,0.000,11.730 
0.5518,0.000,9.775 
0.5520,0.000,9.775 
0.5523,0.000,8.798 
0.5525,0.000,8.798 
0.5527,0.000,8.798 
0.5530,0.000,8.798 
0.5533,0.000,8.798 
0.5535,0.000,8.798 
0.5537,0.000,8.798 
0.5540,0.000,8.798 
0.5543,0.000,8.798 
0.5545,0.000,8.798 
0.5548,0.000,9.775 
0.5550,0.000,9.775 
0.5552,0.000,12.708 
0.5555,0.000,11.730 
0.5558,0.000,11.730 
0.5560,0.000,10.753 
0.5562,0.000,11.730 
0.5565,0.000,10.753 
0.5567,0.000,7.820 
0.5570,0.000,8.798 
0.5573,0.000,7.820 
0.5575,0.000,7.820 
0.5577,0.000,8.798 
0.5580,0.000,7.820 
0.5583,0.000,8.798 
0.5585,0.000,8.798 
0.5587,0.000,8.798 
0.5590,0.000,7.820 
0.5592,0.000,8.798 
0.5595,0.000,8.798 
0.5598,0.000,8.798 
0.5600,0.000,8.798 
0.5602,0.000,8.798 
0.5605,0.000,7.820 
0.5608,0.000,7.820 
0.5610,0.000,8.798 
0.5612,0.000,8.798 
0.5615,0.000,7.820 
0.5617,0.000,8.798 
0.5620,0.000,7.820 
0.5623,0.000,10.753 
0.5625,0.000,10.753 
0.5627,0.000,10.753 
0.5630,0.000,8.798 
0.5633,0.000,8.798 
0.5635,0.000,7.820 
0.5638,0.000,8.798 
0.5640,0.000,7.820 
0.5642,0.000,8.798 
0.5645,0.000,8.798 
0.5648,0.000,8.798 
0.5650,0.000,8.798 
0.5652,0.000,8.798 
0.5655,0.000,8.798 
0.5658,0.000,8.798 
0.5660,0.000,8.798 
0.5663,0.000,9.775 
0.5665,0.000,9.775 
0.5667,0.000,12.708 
0.5670,0.000,11.730 
0.5673,0.000,11.730 
0.5675,0.000,10.753 
0.5677,0.000,7.820 
0.5680,0.000,7.820 
0.5683,0.000,7.820 
0.5685,0.000,7.820 
0.5688,0.000,8.798 
0.5690,0.000,8.798 
0.5692,0.000,8.798 
0.5695,0.000,7.820 
0.5698,0.000,8.798 
0.5700,0.000,8.798 
0.5702,0.000,8.798 
0.5705,0.000,8.798 
0.5707,0.000,8.798 
0.5710,0.000,8.798 
0.5713,0.000,8.798 
0.5715,0.000,8.798 
0.5717,0.000,9.775 
0.5720,0.000,8.798 
0.5723,0.000,8.798 
0.5725,0.000,8.798 
0.5727,0.000,8.798 
0.5730,0.000,8.798 
0.5732,0.000,7.820 
0.5735,0.000,7.820 
0.5738,0.000,8.798 
0.5740,0.000,8.798 
0.5742,0.000,7.820 
0.5745,0.000,9.775 
0.5748,0.000,8.798 
0.5750,0.000,8.798 
0.5753,0.000,8.798 
0.5755,0.000,8.798 
0.5757,0.000,7.820 
0.5760,0.000,8.798 
0.5763,0.000,8.798 
0.5765,0.000,7.820 
0.5767,0.000,7.820 
0.5770,0.000,8.798 
0.5773,0.000,9.775 
0.5775,0.000,8.798 
0.5778,0.000,8.798 
0.5780,0.000,8.798 
0.5782,0.000,9.775 
0.5785,0.000,8.798 
0.5788,0.000,8.798 
0.5790,0.000,8.798 
0.5792,0.000,8.798 
0.5795,0.000,8.798 
0.5798,0.000,8.798 
0.5800,0.000,8.798 
0.5803,0.000,8.798 
0.5805,0.000,9.775 
0.5807,0.000,9.775 
0.5810,0.000,8.798 
0.5813,0.000,9.775 
0.5815,0.000,9.775 
0.5817,0.000,9.775 
0.5820,0.000,10.753 
0.5822,0.000,9.775 
0.5825,0.000,9.775 
0.5828,0.000,12.708 
0.5830,0.000,12.708 
0.5832,0.000,11.730 
0.5835,0.000,12.708 
0.5838,0.000,11.730 
0.5840,0.000,11.730 
0.5842,0.000,11.730 
0.5845,0.000,11.730 
0.5847,0.000,11.730 
0.5850,0.000,11.730 
0.5853,0.000,10.753 
0.5855,0.000,11.730 
0.5857,0.000,11.730 
0.5860,0.000,12.708 
0.5863,0.000,12.708 
0.5865,0.000,11.730 
0.5867,0.000,12.708 
0.5870,0.000,11.730 
0.5872,0.000,11.730 
0.5875,0.000,12.708 
0.5878,0.000,9.775 
0.5880,0.000,9.775 
0.5882,0.000,9.775 
0.5885,0.000,8.798 
0.5888,0.000,9.775 
0.5890,0.000,9.775 
0.5893,0.000,12.708 
0.5895,0.000,9.775 
0.5897,0.000,9.775 
0.5900,0.000,9.775 
0.5903,0.000,9.775 
0.5905,0.000,9.775 
0.5907,0.000,8.798 
0.5910,0.000,8.798 
0.5913,0.000,9.775 
0.5915,0.000,9.775 
0.5918,0.000,8.798 
0.5920,0.000,8.798 
0.5922,0.000,8.798 
0.5925,0.000,8.798 
0.5928,0.000,7.820 
0.5930,0.000,8.798 
0.5932,0.000,9.775 
0.5935,0.000,8.798 
0.5938,0.000,9.775 
0.5940,0.000,8.798 
0.5943,0.000,8.798 
0.5945,0.000,9.775 
0.5947,0.000,9.775 
0.5950,0.000,12.708 
0.5953,0.000,11.730 
0.5955,0.000,11.730 
0.5957,0.000,11.730 
0.5960,0.000,11.730 
0.5962,0.000,10.753 
0.5965,0.000,11.730 
0.5968,0.000,10.753 
0.5970,0.000,11.730 
0.5972,0.000,11.730 
0.5975,0.000,11.730 
0.5978,0.000,10.753 
0.5980,0.000,11.730 
0.5982,0.000,12.708 
0.5985,0.000,12.708 
0.5987,0.000,11.730 
0.5990,0.000,11.730 
0.5993,0.000,12.708 
0.5995,0.000,9.775 
0.5997,0.000,9.775 
0.6000,0.000,8.798 
0.6003,0.000,8.798 
0.6005,0.000,8.798 
0.6008,0.000,8.798 
0.6010,0.000,8.798 
0.6012,0.000,8.798 
0.6015,0.000,8.798 
0.6018,0.000,8.798 
0.6020,0.000,7.820 
0.6022,0.000,8.798 
0.6025,0.000,9.775 
0.6028,0.000,8.798 
0.6030,0.000,9.775 
0.6033,0.000,9.775 
0.6035,0.000,8.798 
0.6037,0.000,8.798 
0.6040,0.000,8.798 
0.6043,0.000,8.798 
0.6045,0.000,8.798 
0.6047,0.000,8.798 
0.6050,0.000,8.798 
0.6053,0.000,9.775 
0.6055,0.000,8.798 
0.6058,0.000,8.798 
0.6060,0.000,8.798 
0.6062,0.000,8.798 
0.6065,0.000,8.798 
0.6068,0.000,7.820 
0.6070,0.000,7.820 
0.6072,0.000,8.798 
0.6075,0.000,8.798 
0.6077,0.000,8.798 
0.6080,0.000,10.753 
0.6083,0.000,11.730 
0.6085,0.000,12.708 
0.6087,0.000,11.730 
0.6090,0.000,11.730 
0.6093,0.000,11.730 
0.6095,0.000,11.730 
0.6097,0.000,12.708 
0.6100,0.000,11.730 
0.6102,0.000,12.708 
0.6105,0.000,11.730 
0.6108,0.000,11.730 
0.6110,0.000,11.730 
0.6112,0.000,11.730 
0.6115,0.000,11.730 
0.6118,0.000,11.730 
0.6120,0.000,11.730 
0.6122,0.000,11.730 
0.6125,0.000,11.730 
0.6127,0.000,9.775 
0.6130,0.000,8.798 
0.6133,0.000,7.820 
0.6135,0.000,7.820 
0.6137,0.000,7.820 
0.6140,0.000,8.798 
0.6143,0.000,7.820 
0.6145,0.000,7.820 
0.6148,0.000,7.820 
0.6150,0.000,8.798 
0.6152,0.000,8.798 
0.6155,0.000,7.820 
0.6158,0.000,8.798 
0.6160,0.000,8.798 
0.6162,0.000,8.798 
0.6165,0.000,7.820 
0.6168,0.000,8.798 
0.6170,0.000,8.798 
0.6173,0.000,8.798 
0.6175,0.000,8.798 
0.6177,0.000,7.820 
0.6180,0.000,8.798 
0.6183,0.000,8.798 
0.6185,0.000,9.775 
0.6187,0.000,9.775 
0.6190,0.000,9.775 
0.6192,0.000,12.708 
0.6195,0.000,12.708 
0.6198,0.000,12.708 
0.6200,0.000,11.730 
0.6202,0.000,11.730 
0.6205,0.000,10.753 
0.6208,0.000,10.753 
0.6210,0.000,10.753 
0.6212,0.000,7.820 
0.6215,0.000,7.820 
0.6217,0.000,8.798 
0.6220,0.000,7.820 
0.6223,0.000,7.820 
0.6225,0.000,8.798 
0.6227,0.000,8.798 
0.6230,0.000,7.820 
0.6233,0.000,8.798 
0.6235,0.000,8.798 
0.6237,0.000,12.708 
0.6240,0.000,11.730 
0.6242,0.000,10.753 
0.6245,0.000,8.798 
0.6248,0.000,7.820 
0.6250,0.000,7.820 
0.6252,0.000,8.798 
0.6255,0.000,8.798 
0.6258,0.000,9.775 
0.6260,0.000,11.730 
0.6263,0.000,11.730 
0.6265,0.000,10.753 
0.6267,0.000,10.753 
0.6270,0.000,7.820 
0.6273,0.000,7.820 
0.6275,0.000,8.798 
0.6277,0.000,7.820 
0.6280,0.000,8.798 
0.6283,0.000,8.798 
0.6285,0.000,8.798 
0.6288,0.000,11.730 
0.6290,0.000,11.730 
0.6292,0.000,10.753 
0.6295,0.000,7.820 
0.6298,0.000,8.798 
0.6300,0.000,8.798 
0.6302,0.000,8.798 
0.6305,0.000,8.798 
0.6308,0.000,8.798 
0.6310,0.000,9.775 
0.6313,0.000,12.708 
0.6315,0.000,11.730 
0.6317,0.000,10.753 
0.6320,0.000,8.798 
0.6323,0.000,7.820 
0.6325,0.000,8.798 
0.6327,0.000,8.798 
0.6330,0.000,9.775 
0.6332,0.000,11.730 
0.6335,0.000,11.730 
0.6338,0.000,7.820 
0.6340,0.000,8.798 
0.6342,0.000,8.798 
0.6345,0.000,8.798 
0.6348,0.000,12.708 
0.6350,0.000,11.730 
0.6352,0.000,11.730 
0.6355,0.000,8.798 
0.6357,0.000,7.820 
0.6360,0.000,8.798 
0.6363,0.000,8.798 
0.6365,0.000,12.708 
0.6367,0.000,11.730 
0.6370,0.000,9.775 
0.6373,0.000,7.820 
0.6375,0.000,7.820 
0.6378,0.000,7.820 
0.6380,0.000,8.798 
0.6382,0.000,11.730 
0.6385,0.000,9.775 
0.6388,0.000,7.820 
0.6390,0.000,7.820 
0.6392,0.000,8.798 
0.6395,0.000,10.753 
0.6398,0.000,10.753 
0.6400,0.000,7.820 
0.6403,0.000,6.843 
0.6405,0.000,7.820 
0.6407,0.000,7.820 
0.6410,0.000,11.730 
0.6413,0.000,8.798 
0.6415,0.000,7.820 
0.6417,0.000,6.843 
0.6420,0.000,8.798 
0.6423,0.000,7.820 
0.6425,0.000,10.753 
0.6428,0.000,10.753 
0.6430,0.000,6.843 
0.6432,0.000,6.843 
0.6435,0.000,6.843 
0.6438,0.000,7.820 
0.6440,0.000,10.753 
0.6442,0.000,10.753 
0.6445,0.000,7.820 
0.6447,0.000,7.820 
0.6450,0.000,7.820 
0.6453,0.000,8.798 
0.6455,0.000,11.730 
0.6457,0.000,10.753 
0.6460,0.000,7.820 
0.6463,0.000,7.820 
0.6465,0.000,7.820 
0.6467,0.000,9.775 
0.6470,0.000,11.730 
0.6472,0.000,10.753 
0.6475,0.000,7.820 
0.6478,0.000,7.820 
0.6480,0.000,8.798 
0.6482,0.000,8.798 
0.6485,0.000,11.730 
0.6488,0.000,10.753 
0.6490,0.000,7.820 
0.6492,0.000,7.820 
0.6495,0.000,7.820 
0.6497,0.000,8.798 
0.6500,0.000,9.775 
0.6503,0.000,11.730 
0.6505,0.000,9.775 
0.6507,0.000,7.820 
0.6510,0.000,7.820 
0.6513,0.000,8.798 
0.6515,0.000,8.798 
0.6518,0.000,8.798 
0.6520,0.000,11.730 
0.6522,0.000,10.753 
0.6525,0.000,10.753 
0.6528,0.000,8.798 
0.6530,0.000,7.820 
0.6532,0.000,7.820 
0.6535,0.000,8.798 
0.6538,0.000,8.798 
0.6540,0.000,9.775 
0.6543,0.000,11.730 
0.6545,0.000,11.730 
0.6547,0.000,8.798 
0.6550,0.000,8.798 
0.6553,0.000,8.798 
0.6555,0.000,8.798 
0.6557,0.000,8.798 
0.6560,0.000,9.775 
0.6562,0.000,11.730 
0.6565,0.000,11.730 
0.6568,0.000,9.775 
0.6570,0.000,7.820 
0.6572,0.000,7.820 
0.6575,0.000,7.820 
0.6578,0.000,8.798 
0.6580,0.000,11.730 
0.6582,0.000,11.730 
0.6585,0.000,10.753 
0.6587,0.000,7.820 
0.6590,0.000,7.820 
0.6593,0.000,6.843 
0.6595,0.000,7.820 
0.6597,0.000,7.820 
0.6600,0.000,11.730 
0.6603,0.000,10.753 
0.6605,0.000,9.775 
0.6607,0.000,5.865 
0.6610,0.000,7.820 
0.6612,0.000,5.865 
0.6615,0.000,6.843 
0.6618,0.000,6.843 
0.6620,0.000,6.843 
0.6622,0.000,6.843 
0.6625,0.000,7.820 
0.6628,0.000,7.820 
0.6630,0.000,7.820 
0.6633,0.000,7.820 
0.6635,0.000,10.753 
0.6637,0.000,10.753 
0.6640,0.000,9.775 
0.6643,0.000,9.775 
0.6645,0.000,9.775 
0.6647,0.000,6.843 
0.6650,0.000,5.865 
0.6653,0.000,6.843 
0.6655,0.000,6.843 
0.6658,0.000,6.843 
0.6660,0.000,7.820 
0.6662,0.000,7.820 
0.6665,0.000,6.843 
0.6668,0.000,8.798 
0.6670,0.000,7.820 
0.6672,0.000,10.753 
0.6675,0.000,9.775 
0.6678,0.000,10.753 
0.6680,0.000,9.775 
0.6683,0.000,9.775 
0.6685,0.000,9.775 
0.6687,0.000,7.820 
0.6690,0.000,7.820 
0.6693,0.000,7.820 
0.6695,0.000,7.820 
0.6697,0.000,7.820 
0.6700,0.000,6.843 
0.6702,0.000,6.843 
0.6705,0.000,7.820 
0.6708,0.000,8.798 
0.6710,0.000,8.798 
0.6712,0.000,11.730 
0.6715,0.000,11.730 
0.6718,0.000,10.753 
0.6720,0.000,10.753 
0.6722,0.000,7.820 
0.6725,0.000,6.843 
0.6727,0.000,7.820 
0.6730,0.000,6.843 
0.6733,0.000,7.820 
0.6735,0.000,7.820 
0.6737,0.000,7.820 
0.6740,0.000,8.798 
0.6743,0.000,11.730 
0.6745,0.000,10.753 
0.6747,0.000,10.753 
0.6750,0.000,9.775 
0.6752,0.000,7.820 
0.6755,0.000,7.820 
0.6758,0.000,8.798 
0.6760,0.000,7.820 
0.6762,0.000,6.843 
0.6765,0.000,7.820 
0.6768,0.000,6.843 
0.6770,0.000,7.820 
0.6773,0.000,7.820 
0.6775,0.000,7.820 
0.6777,0.000,7.820 
0.6780,0.000,8.798 
0.6783,0.000,11.730 
0.6785,0.000,11.730 
0.6787,0.000,11.730 
0.6790,0.000,10.753 
0.6793,0.000,10.753 
0.6795,0.000,9.775 
0.6798,0.000,7.820 
0.6800,0.000,6.843 
0.6802,0.000,8.798 
0.6805,0.000,7.820 
0.6808,0.000,6.843 
0.6810,0.000,7.820 
0.6812,0.000,7.820 
0.6815,0.000,6.843 
0.6817,0.000,7.820 
0.6820,0.000,7.820 
0.6823,0.000,7.820 
0.6825,0.000,7.820 
0.6827,0.000,7.820 
0.6830,0.000,7.820 
0.6833,0.000,7.820 
0.6835,0.000,8.798 
0.6837,0.000,8.798 
0.6840,0.000,11.730 
0.6842,0.000,11.730 
0.6845,0.000,10.753 
0.6848,0.000,10.753 
0.6850,0.000,10.753 
0.6852,0.000,9.775 
0.6855,0.000,7.820 
0.6858,0.000,6.843 
0.6860,0.000,7.820 
0.6862,0.000,7.820 
0.6865,0.000,7.820 
0.6867,0.000,7.820 
0.6870,0.000,7.820 
0.6873,0.000,7.820 
0.6875,0.000,8.798 
0.6877,0.000,9.775 
0.6880,0.000,11.730 
0.6883,0.000,11.730 
0.6885,0.000,11.730 
0.6888,0.000,10.753 
0.6890,0.000,11.730 
0.6892,0.000,10.753 
0.6895,0.000,7.820 
0.6898,0.000,7.820 
0.6900,0.000,7.820 
0.6902,0.000,7.820 
0.6905,0.000,8.798 
0.6908,0.000,8.798 
0.6910,0.000,8.798 
0.6913,0.000,8.798 
0.6915,0.000,8.798 
0.6917,0.000,9.775 
0.6920,0.000,8.798 
0.6923,0.000,9.775 
0.6925,0.000,11.730 
0.6927,0.000,11.730 
0.6930,0.000,11.730 
0.6933,0.000,11.730 
0.6935,0.000,11.730 
0.6938,0.000,11.730 
0.6940,0.000,7.820 
0.6942,0.000,7.820 
0.6945,0.000,7.820 
0.6948,0.000,8.798 
0.6950,0.000,8.798 
0.6952,0.000,8.798 
0.6955,0.000,8.798 
0.6957,0.000,7.820 
0.6960,0.000,7.820 
0.6963,0.000,8.798 
0.6965,0.000,8.798 
0.6967,0.000,9.775 
0.6970,0.000,9.775 
0.6973,0.000,9.775 
0.6975,0.000,8.798 
0.6977,0.000,12.708 
0.6980,0.000,11.730 
0.6982,0.000,11.730 
0.6985,0.000,11.730 
0.6988,0.000,11.730 
0.6990,0.000,8.798 
0.6992,0.000,7.820 
0.6995,0.000,7.820 
0.6998,0.000,8.798 
0.7000,0.000,7.820 
0.7003,0.000,8.798 
0.7005,0.000,8.798 
0.7007,0.000,8.798 
0.7010,0.000,8.798 
0.7013,0.000,8.798 
0.7015,0.000,8.798 
0.7017,0.000,8.798 
0.7020,0.000,8.798 
0.7023,0.000,8.798 
0.7025,0.000,9.775 
0.7028,0.000,12.708 
0.7030,0.000,11.730 
0.7032,0.000,11.730 
0.7035,0.000,11.730 
0.7038,0.000,8.798 
0.7040,0.000,8.798 
0.7042,0.000,7.820 
0.7045,0.000,7.820 
0.7048,0.000,9.775 
0.7050,0.000,8.798 
0.7053,0.000,9.775 
0.7055,0.000,11.730 
0.7057,0.000,11.730 
0.7060,0.000,7.820 
0.7063,0.000,7.820 
0.7065,0.000,8.798 
0.7067,0.000,8.798 
0.7070,0.000,9.775 
0.7072,0.000,9.775 
0.7075,0.000,9.775 
0.7078,0.000,11.730 
0.7080,0.000,11.730 
0.7082,0.000,11.730 
0.7085,0.000,8.798 
0.7088,0.000,8.798 
0.7090,0.000,8.798 
0.7092,0.000,8.798 
0.7095,0.000,8.798 
0.7097,0.000,9.775 
0.7100,0.000,12.708 
0.7103,0.000,11.730 
0.7105,0.000,11.730 
0.7107,0.000,10.753 
0.7110,0.000,7.820 
0.7113,0.000,8.798 
0.7115,0.000,8.798 
0.7117,0.000,7.820 
0.7120,0.000,8.798 
0.7122,0.000,9.775 
0.7125,0.000,8.798 
0.7128,0.000,8.798 
0.7130,0.000,8.798 
0.7132,0.000,8.798 
0.7135,0.000,9.775 
0.7138,0.000,9.775 
0.7140,0.000,9.775 
0.7143,0.000,9.775 
0.7145,0.000,12.708 
0.7147,0.000,11.730 
0.7150,0.000,11.730 
0.7153,0.000,11.730 
0.7155,0.000,11.730 
0.7157,0.000,11.730 
0.7160,0.000,11.730 
0.7163,0.000,11.730 
0.7165,0.000,11.730 
0.7168,0.000,10.753 
0.7170,0.000,10.753 
0.7172,0.000,10.753 
0.7175,0.000,10.753 
0.7178,0.000,10.753 
0.7180,0.000,10.753 
0.7182,0.000,11.730 
0.7185,0.000,10.753 
0.7188,0.000,10.753 
0.7190,0.000,10.753 
0.7193,0.000,10.753 
0.7195,0.000,7.820 
0.7197,0.000,7.820 
0.7200,0.000,7.820 
0.7203,0.000,7.820 
0.7205,0.000,7.820 
0.7207,0.000,7.820 
0.7210,0.000,8.798 
0.7212,0.000,8.798 
0.7215,0.000,8.798 
0.7218,0.000,9.775 
0.7220,0.000,9.775 
0.7222,0.000,8.798 
0.7225,0.000,9.775 
0.7228,0.000,11.730 
0.7230,0.000,11.730 
0.7232,0.000,11.730 
0.7235,0.000,10.753 
0.7237,0.000,10.753 
0.7240,0.000,10.753 
0.7243,0.000,10.753 
0.7245,0.000,11.730 
0.7247,0.000,10.753 
0.7250,0.000,10.753 
0.7253,0.000,10.753 
0.7255,0.000,11.730 
0.7258,0.000,10.753 
0.7260,0.000,10.753 
0.7262,0.000,11.730 
0.7265,0.000,8.798 
0.7268,0.000,7.820 
0.7270,0.000,8.798 
0.7272,0.000,8.798 
0.7275,0.000,7.820 
0.7278,0.000,7.820 
0.7280,0.000,8.798 
0.7283,0.000,7.820 
0.7285,0.000,8.798 
0.7287,0.000,7.820 
0.7290,0.000,7.820 
0.7293,0.000,8.798 
0.7295,0.000,8.798 
0.7297,0.000,7.820 
0.7300,0.000,7.820 
0.7303,0.000,7.820 
0.7305,0.000,7.820 
0.7308,0.000,8.798 
0.7310,0.000,7.820 
0.7312,0.000,7.820 
0.7315,0.000,8.798 
0.7318,0.000,8.798 
0.7320,0.000,8.798 
0.7322,0.000,8.798 
0.7325,0.000,11.730 
0.7327,0.000,12.708 
0.7330,0.000,12.708 
0.7333,0.000,12.708 
0.7335,0.000,11.730 
0.7337,0.000,11.730 
0.7340,0.000,10.753 
0.7343,0.000,11.730 
0.7345,0.000,10.753 
0.7347,0.000,7.820 
0.7350,0.000,7.820 
0.7352,0.000,7.820 
0.7355,0.000,8.798 
0.7358,0.000,8.798 
0.7360,0.000,7.820 
0.7362,0.000,7.820 
0.7365,0.000,8.798 
0.7368,0.000,7.820 
0.7370,0.000,8.798 
0.7372,0.000,8.798 
0.7375,0.000,8.798 
0.7377,0.000,8.798 
0.7380,0.000,8.798 
0.7383,0.000,8.798 
0.7385,0.000,8.798 
0.7387,0.000,12.708 
0.7390,0.000,10.753 
0.7393,0.000,11.730 
0.7395,0.000,11.730 
0.7398,0.000,11.730 
0.7400,0.000,10.753 
0.7402,0.000,10.753 
0.7405,0.000,8.798 
0.7408,0.000,7.820 
0.7410,0.000,7.820 
0.7412,0.000,7.820 
0.7415,0.000,7.820 
0.7418,0.000,7.820 
0.7420,0.000,8.798 
0.7423,0.000,7.820 
0.7425,0.000,8.798 
0.7427,0.000,8.798 
0.7430,0.000,8.798 
0.7433,0.000,8.798 
0.7435,0.000,8.798 
0.7437,0.000,8.798 
0.7440,0.000,8.798 
0.7442,0.000,8.798 
0.7445,0.000,12.708 
0.7448,0.000,12.708 
0.7450,0.000,11.730 
0.7452,0.000,11.730 
0.7455,0.000,11.730 
0.7458,0.000,11.730 
0.7460,0.000,11.730 
0.7462,0.000,11.730 
0.7465,0.000,11.730 
0.7467,0.000,10.753 
0.7470,0.000,10.753 
0.7473,0.000,9.775 
0.7475,0.000,9.775 
0.7477,0.000,7.820 
0.7480,0.000,7.820 
0.7483,0.000,8.798 
0.7485,0.000,10.753 
0.7487,0.000,7.820 
0.7490,0.000,7.820 
0.7492,0.000,7.820 
0.7495,0.000,7.820 
0.7498,0.000,7.820 
0.7500,0.000,7.820 
0.7502,0.000,8.798 
0.7505,0.000,8.798 
0.7508,0.000,7.820 
0.7510,0.000,8.798 
0.7513,0.000,8.798 
0.7515,0.000,8.798 
0.7517,0.000,8.798 
0.7520,0.000,8.798 
0.7523,0.000,8.798 
0.7525,0.000,8.798 
0.7527,0.000,12.708 
0.7530,0.000,11.730 
0.7533,0.000,11.730 
0.7535,0.000,11.730 
0.7538,0.000,11.730 
0.7540,0.000,11.730 
0.7542,0.000,10.753 
0.7545,0.000,11.730 
0.7548,0.000,11.730 
0.7550,0.000,10.753 
0.7552,0.000,7.820 
0.7555,0.000,7.820 
0.7558,0.000,7.820 
0.7560,0.000,7.820 
0.7563,0.000,7.820 
0.7565,0.000,8.798 
0.7567,0.000,8.798 
0.7570,0.000,7.820 
0.7573,0.000,8.798 
0.7575,0.000,7.820 
0.7577,0.000,8.798 
0.7580,0.000,7.820 
0.7582,0.000,8.798 
0.7585,0.000,8.798 
0.7588,0.000,8.798 
0.7590,0.000,7.820 
0.7592,0.000,9.775 
0.7595,0.000,9.775 
0.7598,0.000,11.730 
0.7600,0.000,11.730 
0.7602,0.000,11.730 
0.7605,0.000,11.730 
0.7607,0.000,10.753 
0.7610,0.000,10.753 
0.7613,0.000,8.798 
0.7615,0.000,10.753 
0.7617,0.000,11.730 
0.7620,0.000,7.820 
0.7623,0.000,7.820 
0.7625,0.000,7.820 
0.7628,0.000,8.798 
0.7630,0.000,8.798 
0.7632,0.000,8.798 
0.7635,0.000,8.798 
0.7638,0.000,8.798 
0.7640,0.000,8.798 
0.7642,0.000,8.798 
0.7645,0.000,8.798 
0.7648,0.000,9.775 
0.7650,0.000,9.775 
0.7653,0.000,12.708 
0.7655,0.000,11.730 
0.7657,0.000,11.730 
0.7660,0.000,8.798 
0.7663,0.000,7.820 
0.7665,0.000,7.820 
0.7667,0.000,7.820 
0.7670,0.000,8.798 
0.7673,0.000,8.798 
0.7675,0.000,7.820 
0.7678,0.000,8.798 
0.7680,0.000,7.820 
0.7682,0.000,8.798 
0.7685,0.000,8.798 
0.7688,0.000,9.775 
0.7690,0.000,11.730 
0.7692,0.000,12.708 
0.7695,0.000,11.730 
0.7697,0.000,10.753 
0.7700,0.000,10.753 
0.7703,0.000,9.775 
0.7705,0.000,9.775 
0.7707,0.000,8.798 
0.7710,0.000,7.820 
0.7713,0.000,7.820 
0.7715,0.000,7.820 
0.7717,0.000,7.820 
0.7720,0.000,8.798 
0.7722,0.000,8.798 
0.7725,0.000,9.775 
0.7728,0.000,7.820 
0.7730,0.000,8.798 
0.7732,0.000,8.798 
0.7735,0.000,9.775 
0.7738,0.000,8.798 
0.7740,0.000,11.730 
0.7742,0.000,11.730 
0.7745,0.000,11.730 
0.7747,0.000,11.730 
0.7750,0.000,7.820 
0.7753,0.000,7.820 
0.7755,0.000,8.798 
0.7757,0.000,8.798 
0.7760,0.000,7.820 
0.7763,0.000,7.820 
0.7765,0.000,8.798 
0.7768,0.000,8.798 
0.7770,0.000,8.798 
0.7772,0.000,9.775 
0.7775,0.000,11.730 
0.7778,0.000,11.730 
0.7780,0.000,11.730 
0.7782,0.000,11.730 
0.7785,0.000,10.753 
0.7788,0.000,9.775 
0.7790,0.000,7.820 
0.7793,0.000,8.798 
0.7795,0.000,8.798 
0.7797,0.000,7.820 
0.7800,0.000,8.798 
0.7803,0.000,7.820 
0.7805,0.000,8.798 
0.7807,0.000,9.775 
0.7810,0.000,9.775 
0.7812,0.000,12.708 
0.7815,0.000,11.730 
0.7818,0.000,11.730 
0.7820,0.000,11.730 
0.7822,0.000,11.730 
0.7825,0.000,10.753 
0.7828,0.000,7.820 
0.7830,0.000,8.798 
0.7832,0.000,8.798 
0.7835,0.000,8.798 
0.7837,0.000,9.775 
0.7840,0.000,8.798 
0.7843,0.000,11.730 
0.7845,0.000,11.730 
0.7847,0.000,11.730 
0.7850,0.000,10.753 
0.7853,0.000,11.730 
0.7855,0.000,10.753 
0.7857,0.000,10.753 
0.7860,0.000,9.775 
0.7862,0.000,7.820 
0.7865,0.000,7.820 
0.7868,0.000,8.798 
0.7870,0.000,7.820 
0.7872,0.000,8.798 
0.7875,0.000,9.775 
0.7878,0.000,12.708 
0.7880,0.000,11.730 
0.7883,0.000,11.730 
0.7885,0.000,7.820 
0.7887,0.000,7.820 
0.7890,0.000,8.798 
0.7893,0.000,7.820 
0.7895,0.000,8.798 
0.7897,0.000,8.798 
0.7900,0.000,8.798 
0.7903,0.000,8.798 
0.7905,0.000,8.798 
0.7908,0.000,9.775 
0.7910,0.000,11.730 
0.7912,0.000,11.730 
0.7915,0.000,10.753 
0.7918,0.000,7.820 
0.7920,0.000,8.798 
0.7922,0.000,8.798 
0.7925,0.000,8.798 
0.7928,0.000,8.798 
0.7930,0.000,8.798 
0.7933,0.000,8.798 
0.7935,0.000,8.798 
0.7937,0.000,11.730 
0.7940,0.000,11.730 
0.7943,0.000,11.730 
0.7945,0.000,11.730 
0.7947,0.000,10.753 
0.7950,0.000,6.843 
0.7952,0.000,8.798 
0.7955,0.000,7.820 
0.7958,0.000,7.820 
0.7960,0.000,7.820 
0.7962,0.000,8.798 
0.7965,0.000,8.798 
0.7968,0.000,8.798 
0.7970,0.000,8.798 
0.7972,0.000,8.798 
0.7975,0.000,9.775 
0.7977,0.000,11.730 
0.7980,0.000,11.730 
0.7983,0.000,11.730 
0.7985,0.000,7.820 
0.7987,0.000,7.820 
0.7990,0.000,6.843 
0.7993,0.000,7.820 
0.7995,0.000,8.798 
0.7997,0.000,7.820 
0.8000,0.000,7.820 
0.8002,0.000,8.798 
0.8005,0.000,8.798 
0.8008,0.000,8.798 
0.8010,0.000,8.798 
0.8012,0.000,8.798 
0.8015,0.000,12.708 
0.8018,0.000,11.730 
0.8020,0.000,11.730 
0.8023,0.000,11.730 
0.8025,0.000,10.753 
0.8027,0.000,10.753 
0.8030,0.000,8.798 
0.8033,0.000,7.820 
0.8035,0.000,7.820 
0.8037,0.000,7.820 
0.8040,0.000,8.798 
0.8043,0.000,8.798 
0.8045,0.000,8.798 
0.8048,0.000,8.798 
0.8050,0.000,8.798 
0.8052,0.000,9.775 
0.8055,0.000,11.730 
0.8058,0.000,11.730 
0.8060,0.000,7.820 
0.8062,0.000,7.820 
0.8065,0.000,7.820 
0.8067,0.000,8.798 
0.8070,0.000,8.798 
0.8073,0.000,8.798 
0.8075,0.000,8.798 
0.8077,0.000,11.730 
0.8080,0.000,10.753 
0.8083,0.000,10.753 
0.8085,0.000,10.753 
0.8087,0.000,7.820 
0.8090,0.000,7.820 
0.8092,0.000,7.820 
0.8095,0.000,7.820 
0.8098,0.000,8.798 
0.8100,0.000,8.798 
0.8102,0.000,11.730 
0.8105,0.000,11.730 
0.8108,0.000,11.730 
0.8110,0.000,7.820 
0.8112,0.000,7.820 
0.8115,0.000,7.820 
0.8117,0.000,7.820 
0.8120,0.000,8.798 
0.8123,0.000,7.820 
0.8125,0.000,8.798 
0.8127,0.000,8.798 
0.8130,0.000,9.775 
0.8133,0.000,9.775 
0.8135,0.000,11.730 
0.8138,0.000,11.730 
0.8140,0.000,11.730 
0.8142,0.000,10.753 
0.8145,0.000,7.820 
0.8148,0.000,8.798 
0.8150,0.000,7.820 
0.8152,0.000,7.820 
0.8155,0.000,8.798 
0.8158,0.000,9.775 
0.8160,0.000,8.798 
0.8163,0.000,12.708 
0.8165,0.000,10.753 
0.8167,0.000,10.753 
0.8170,0.000,10.753 
0.8173,0.000,8.798 
0.8175,0.000,8.798 
0.8177,0.000,7.820 
0.8180,0.000,8.798 
0.8183,0.000,8.798 
0.8185,0.000,7.820 
0.8188,0.000,8.798 
0.8190,0.000,8.798 
0.8192,0.000,12.708 
0.8195,0.000,11.730 
0.8198,0.000,11.730 
0.8200,0.000,7.820 
0.8202,0.000,7.820 
0.8205,0.000,7.820 
0.8207,0.000,8.798 
0.8210,0.000,9.775 
0.8213,0.000,11.730 
0.8215,0.000,11.730 
0.8217,0.000,11.730 
0.8220,0.000,10.753 
0.8223,0.000,7.820 
0.8225,0.000,7.820 
0.8227,0.000,7.820 
0.8230,0.000,8.798 
0.8232,0.000,8.798 
0.8235,0.000,8.798 
0.8238,0.000,9.775 
0.8240,0.000,7.820 
0.8242,0.000,11.730 
0.8245,0.000,10.753 
0.8248,0.000,10.753 
0.8250,0.000,7.820 
0.8253,0.000,8.798 
0.8255,0.000,7.820 
0.8257,0.000,7.820 
0.8260,0.000,7.820 
0.8263,0.000,7.820 
0.8265,0.000,8.798 
0.8267,0.000,8.798 
0.8270,0.000,8.798 
0.8273,0.000,8.798 
0.8275,0.000,11.730 
0.8278,0.000,11.730 
0.8280,0.000,11.730 
0.8282,0.000,11.730 
0.8285,0.000,11.730 
0.8288,0.000,10.753 
0.8290,0.000,10.753 
0.8292,0.000,7.820 
0.8295,0.000,7.820 
0.8298,0.000,7.820 
0.8300,0.000,7.820 
0.8303,0.000,7.820 
0.8305,0.000,7.820 
0.8307,0.000,7.820 
0.8310,0.000,8.798 
0.8313,0.000,7.820 
0.8315,0.000,8.798 
0.8317,0.000,8.798 
0.8320,0.000,8.798 
0.8322,0.000,9.775 
0.8325,0.000,9.775 
0.8328,0.000,11.730 
0.8330,0.000,11.730 
0.8332,0.000,11.730 
0.8335,0.000,7.820 
0.8338,0.000,8.798 
0.8340,0.000,7.820 
0.8342,0.000,7.820 
0.8345,0.000,7.820 
0.8347,0.000,8.798 
0.8350,0.000,9.775 
0.8353,0.000,12.708 
0.8355,0.000,11.730 
0.8357,0.000,10.753 
0.8360,0.000,10.753 
0.8363,0.000,8.798 
0.8365,0.000,7.820 
0.8367,0.000,8.798 
0.8370,0.000,8.798 
0.8372,0.000,8.798 
0.8375,0.000,8.798 
0.8378,0.000,8.798 
0.8380,0.000,8.798 
0.8382,0.000,8.798 
0.8385,0.000,8.798 
0.8388,0.000,9.775 
0.8390,0.000,8.798 
0.8393,0.000,11.730 
0.8395,0.000,11.730 
0.8397,0.000,11.730 
0.8400,0.000,10.753 
0.8403,0.000,8.798 
0.8405,0.000,7.820 
0.8407,0.000,6.843 
0.8410,0.000,8.798 
0.8413,0.000,8.798 
0.8415,0.000,8.798 
0.8418,0.000,10.753 
0.8420,0.000,12.708 
0.8422,0.000,11.730 
0.8425,0.000,10.753 
0.8428,0.000,10.753 
0.8430,0.000,7.820 
0.8432,0.000,7.820 
0.8435,0.000,7.820 
0.8438,0.000,7.820 
0.8440,0.000,7.820 
0.8443,0.000,7.820 
0.8445,0.000,8.798 
0.8447,0.000,8.798 
0.8450,0.000,8.798 
0.8453,0.000,8.798 
0.8455,0.000,12.708 
0.8457,0.000,12.708 
0.8460,0.000,11.730 
0.8462,0.000,10.753 
0.8465,0.000,10.753 
0.8468,0.000,8.798 
0.8470,0.000,8.798 
0.8472,0.000,9.775 
0.8475,0.000,8.798 
0.8478,0.000,7.820 
0.8480,0.000,8.798 
0.8482,0.000,7.820 
0.8485,0.000,8.798 
0.8487,0.000,8.798 
0.8490,0.000,8.798 
0.8493,0.000,8.798 
0.8495,0.000,9.775 
0.8497,0.000,8.798 
0.8500,0.000,11.730 
0.8503,0.000,11.730 
0.8505,0.000,11.730 
0.8508,0.000,10.753 
0.8510,0.000,8.798 
0.8512,0.000,7.820 
0.8515,0.000,7.820 
0.8518,0.000,9.775 
0.8520,0.000,8.798 
0.8522,0.000,7.820 
0.8525,0.000,8.798 
0.8528,0.000,8.798 
0.8530,0.000,9.775 
0.8533,0.000,8.798 
0.8535,0.000,9.775 
0.8537,0.000,8.798 
0.8540,0.000,8.798 
0.8543,0.000,12.708 
0.8545,0.000,11.730 
0.8547,0.000,11.730 
0.8550,0.000,11.730 
0.8553,0.000,7.820 
0.8555,0.000,7.820 
0.8558,0.000,7.820 
0.8560,0.000,8.798 
0.8562,0.000,7.820 
0.8565,0.000,8.798 
0.8568,0.000,8.798 
0.8570,0.000,11.730 
0.8572,0.000,11.730 
0.8575,0.000,11.730 
0.8577,0.000,7.820 
0.8580,0.000,7.820 
0.8583,0.000,8.798 
0.8585,0.000,8.798 
0.8587,0.000,8.798 
0.8590,0.000,9.775 
0.8593,0.000,11.730 
0.8595,0.000,11.730 
0.8597,0.000,10.753 
0.8600,0.000,8.798 
0.8602,0.000,8.798 
0.8605,0.000,7.820 
0.8608,0.000,7.820 
0.8610,0.000,8.798 
0.8612,0.000,8.798 
0.8615,0.000,8.798 
0.8618,0.000,9.775 
0.8620,0.000,9.775 
0.8622,0.000,11.730 
0.8625,0.000,11.730 
0.8627,0.000,11.730 
0.8630,0.000,10.753 
0.8633,0.000,10.753 
0.8635,0.000,7.820 
0.8637,0.000,7.820 
0.8640,0.000,8.798 
0.8643,0.000,7.820 
0.8645,0.000,8.798 
0.8648,0.000,7.820 
0.8650,0.000,7.820 
0.8652,0.000,7.820 
0.8655,0.000,8.798 
0.8658,0.000,7.820 
0.8660,0.000,9.775 
0.8662,0.000,8.798 
0.8665,0.000,9.775 
0.8668,0.000,11.730 
0.8670,0.000,11.730 
0.8673,0.000,11.730 
0.8675,0.000,7.820 
0.8677,0.000,8.798 
0.8680,0.000,8.798 
0.8683,0.000,8.798 
0.8685,0.000,8.798 
0.8687,0.000,8.798 
0.8690,0.000,8.798 
0.8692,0.000,8.798 
0.8695,0.000,8.798 
0.8698,0.000,12.708 
0.8700,0.000,11.730 
0.8702,0.000,10.753 
0.8705,0.000,8.798 
0.8708,0.000,8.798 
0.8710,0.000,8.798 
0.8712,0.000,8.798 
0.8715,0.000,8.798 
0.8717,0.000,8.798 
0.8720,0.000,9.775 
0.8723,0.000,11.730 
0.8725,0.000,11.730 
0.8727,0.000,11.730 
0.8730,0.000,10.753 
0.8733,0.000,10.753 
0.8735,0.000,8.798 
0.8737,0.000,7.820 
0.8740,0.000,8.798 
0.8742,0.000,8.798 
0.8745,0.000,8.798 
0.8748,0.000,8.798 
0.8750,0.000,8.798 
0.8752,0.000,9.775 
0.8755,0.000,9.775 
0.8758,0.000,11.730 
0.8760,0.000,11.730 
0.8763,0.000,11.730 
0.8765,0.000,7.820 
0.8767,0.000,8.798 
0.8770,0.000,8.798 
0.8773,0.000,8.798 
0.8775,0.000,8.798 
0.8777,0.000,8.798 
0.8780,0.000,11.730 
0.8783,0.000,11.730 
0.8785,0.000,9.775 
0.8788,0.000,7.820 
0.8790,0.000,7.820 
0.8792,0.000,8.798 
0.8795,0.000,7.820 
0.8798,0.000,8.798 
0.8800,0.000,9.775 
0.8802,0.000,12.708 
0.8805,0.000,11.730 
0.8808,0.000,11.730 
0.8810,0.000,10.753 
0.8813,0.000,8.798 
0.8815,0.000,7.820 
0.8817,0.000,7.820 
0.8820,0.000,7.820 
0.8823,0.000,8.798 
0.8825,0.000,8.798 
0.8827,0.000,8.798 
0.8830,0.000,8.798 
0.8832,0.000,12.708 
0.8835,0.000,11.730 
0.8838,0.000,11.730 
0.8840,0.000,10.753 
0.8842,0.000,8.798 
0.8845,0.000,7.820 
0.8848,0.000,7.820 
0.8850,0.000,8.798 
0.8852,0.000,8.798 
0.8855,0.000,8.798 
0.8857,0.000,8.798 
0.8860,0.000,9.775 
0.8863,0.000,12.708 
0.8865,0.000,11.730 
0.8867,0.000,11.730 
0.8870,0.000,11.730 
0.8873,0.000,11.730 
0.8875,0.000,10.753 
0.8878,0.000,11.730 
0.8880,0.000,11.730 
0.8882,0.000,10.753 
0.8885,0.000,9.775 
0.8888,0.000,9.775 
0.8890,0.000,7.820 
0.8892,0.000,7.820 
0.8895,0.000,7.820 
0.8898,0.000,7.820 
0.8900,0.000,7.820 
0.8903,0.000,8.798 
0.8905,0.000,8.798 
0.8907,0.000,8.798 
0.8910,0.000,9.775 
0.8913,0.000,12.708 
0.8915,0.000,10.753 
0.8917,0.000,8.798 
0.8920,0.000,7.820 
0.8923,0.000,8.798 
0.8925,0.000,8.798 
0.8928,0.000,8.798 
0.8930,0.000,9.775 
0.8932,0.000,12.708 
0.8935,0.000,11.730 
0.8938,0.000,10.753 
0.8940,0.000,10.753 
0.8942,0.000,8.798 
0.8945,0.000,7.820 
0.8947,0.000,9.775 
0.8950,0.000,8.798 
0.8953,0.000,8.798 
0.8955,0.000,11.730 
0.8957,0.000,11.730 
0.8960,0.000,10.753 
0.8963,0.000,7.820 
0.8965,0.000,7.820 
0.8967,0.000,8.798 
0.8970,0.000,8.798 
0.8972,0.000,7.820 
0.8975,0.000,9.775 
0.8978,0.000,8.798 
0.8980,0.000,9.775 
0.8982,0.000,11.730 
0.8985,0.000,11.730 
0.8988,0.000,10.753 
0.8990,0.000,7.820 
0.8992,0.000,7.820 
0.8995,0.000,7.820 
0.8997,0.000,8.798 
0.9000,0.000,7.820 
0.9003,0.000,8.798 
0.9005,0.000,10.753 
0.9007,0.000,10.753 
0.9010,0.000,10.753 
0.9013,0.000,8.798 
0.9015,0.000,7.820 
0.9018,0.000,8.798 
0.9020,0.000,8.798 
0.9022,0.000,9.775 
0.9025,0.000,9.775 
0.9028,0.000,11.730 
0.9030,0.000,11.730 
0.9032,0.000,10.753 
0.9035,0.000,7.820 
0.9038,0.000,8.798 
0.9040,0.000,7.820 
0.9043,0.000,8.798 
0.9045,0.000,9.775 
0.9047,0.000,11.730 
0.9050,0.000,11.730 
0.9053,0.000,10.753 
0.9055,0.000,7.820 
0.9057,0.000,7.820 
0.9060,0.000,7.820 
0.9062,0.000,7.820 
0.9065,0.000,8.798 
0.9068,0.000,8.798 
0.9070,0.000,11.730 
0.9072,0.000,10.753 
0.9075,0.000,9.775 
0.9078,0.000,7.820 
0.9080,0.000,7.820 
0.9082,0.000,7.820 
0.9085,0.000,8.798 
0.9087,0.000,8.798 
0.9090,0.000,8.798 
0.9093,0.000,9.775 
0.9095,0.000,12.708 
0.9097,0.000,11.730 
0.9100,0.000,10.753 
0.9103,0.000,8.798 
0.9105,0.000,8.798 
0.9107,0.000,7.820 
0.9110,0.000,8.798 
0.9112,0.000,7.820 
0.9115,0.000,8.798 
0.9118,0.000,12.708 
0.9120,0.000,11.730 
0.9122,0.000,10.753 
0.9125,0.000,7.820 
0.9128,0.000,7.820 
0.9130,0.000,8.798 
0.9133,0.000,8.798 
0.9135,0.000,8.798 
0.9137,0.000,10.753 
0.9140,0.000,10.753 
0.9143,0.000,7.820 
0.9145,0.000,7.820 
0.9147,0.000,8.798 
0.9150,0.000,8.798 
0.9153,0.000,8.798 
0.9155,0.000,9.775 
0.9158,0.000,12.708 
0.9160,0.000,11.730 
0.9162,0.000,12.708 
0.9165,0.000,10.753 
0.9168,0.000,7.820 
0.9170,0.000,8.798 
0.9172,0.000,7.820 
0.9175,0.000,7.820 
0.9178,0.000,8.798 
0.9180,0.000,8.798 
0.9183,0.000,11.730 
0.9185,0.000,11.730 
0.9187,0.000,10.753 
0.9190,0.000,10.753 
0.9193,0.000,7.820 
0.9195,0.000,8.798 
0.9197,0.000,7.820 
0.9200,0.000,8.798 
0.9202,0.000,7.820 
0.9205,0.000,9.775 
0.9208,0.000,8.798 
0.9210,0.000,9.775 
0.9212,0.000,11.730 
0.9215,0.000,11.730 
0.9218,0.000,10.753 
0.9220,0.000,7.820 
0.9222,0.000,7.820 
0.9225,0.000,7.820 
0.9227,0.000,8.798 
0.9230,0.000,7.820 
0.9233,0.000,8.798 
0.9235,0.000,9.775 
0.9237,0.000,11.730 
0.9240,0.000,10.753 
0.9243,0.000,10.753 
0.9245,0.000,7.820 
0.9247,0.000,8.798 
0.9250,0.000,8.798 
0.9252,0.000,7.820 
0.9255,0.000,8.798 
0.9258,0.000,8.798 
0.9260,0.000,11.730 
0.9262,0.000,10.753 
0.9265,0.000,7.820 
0.9268,0.000,8.798 
0.9270,0.000,8.798 
0.9273,0.000,8.798 
0.9275,0.000,8.798 
0.9277,0.000,8.798 
0.9280,0.000,11.730 
0.9283,0.000,11.730 
0.9285,0.000,11.730 
0.9287,0.000,10.753 
0.9290,0.000,8.798 
0.9293,0.000,8.798 
0.9295,0.000,8.798 
0.9298,0.000,8.798 
0.9300,0.000,8.798 
0.9302,0.000,8.798 
0.9305,0.000,8.798 
0.9308,0.000,11.730 
0.9310,0.000,11.730 
0.9312,0.000,10.753 
0.9315,0.000,10.753 
0.9317,0.000,7.820 
0.9320,0.000,8.798 
0.9323,0.000,7.820 
0.9325,0.000,7.820 
0.9327,0.000,8.798 
0.9330,0.000,8.798 
0.9333,0.000,7.820 
0.9335,0.000,8.798 
0.9337,0.000,8.798 
0.9340,0.000,8.798 
0.9342,0.000,8.798 
0.9345,0.000,9.775 
0.9348,0.000,9.775 
0.9350,0.000,11.730 
0.9352,0.000,11.730 
0.9355,0.000,12.708 
0.9358,0.000,11.730 
0.9360,0.000,11.730 
0.9362,0.000,11.730 
0.9365,0.000,11.730 
0.9367,0.000,11.730 
0.9370,0.000,10.753 
0.9373,0.000,8.798 
0.9375,0.000,7.820 
0.9377,0.000,7.820 
0.9380,0.000,8.798 
0.9383,0.000,8.798 
0.9385,0.000,9.775 
0.9388,0.000,12.708 
0.9390,0.000,12.708 
0.9392,0.000,10.753 
0.9395,0.000,10.753 
0.9398,0.000,10.753 
0.9400,0.000,8.798 
0.9402,0.000,8.798 
0.9405,0.000,7.820 
0.9408,0.000,8.798 
0.9410,0.000,8.798 
0.9413,0.000,8.798 
0.9415,0.000,8.798 
0.9417,0.000,8.798 
0.9420,0.000,8.798 
0.9423,0.000,8.798 
0.9425,0.000,8.798 
0.9427,0.000,8.798 
0.9430,0.000,9.775 
0.9433,0.000,9.775 
0.9435,0.000,11.730 
0.9438,0.000,11.730 
0.9440,0.000,11.730 
0.9442,0.000,11.730 
0.9445,0.000,11.730 
0.9448,0.000,10.753 
0.9450,0.000,11.730 
0.9452,0.000,7.820 
0.9455,0.000,7.820 
0.9457,0.000,7.820 
0.9460,0.000,7.820 
0.9463,0.000,8.798 
0.9465,0.000,8.798 
0.9467,0.000,8.798 
0.9470,0.000,11.730 
0.9473,0.000,11.730 
0.9475,0.000,10.753 
0.9477,0.000,8.798 
0.9480,0.000,7.820 
0.9482,0.000,8.798 
0.9485,0.000,7.820 
0.9488,0.000,8.798 
0.9490,0.000,8.798 
0.9492,0.000,8.798 
0.9495,0.000,8.798 
0.9498,0.000,9.775 
0.9500,0.000,11.730 
0.9503,0.000,11.730 
0.9505,0.000,11.730 
0.9507,0.000,11.730 
0.9510,0.000,10.753 
0.9513,0.000,12.708 
0.9515,0.000,11.730 
0.9517,0.000,10.753 
0.9520,0.000,10.753 
0.9523,0.000,10.753 
0.9525,0.000,7.820 
0.9528,0.000,8.798 
0.9530,0.000,8.798 
0.9532,0.000,7.820 
0.9535,0.000,7.820 
0.9538,0.000,7.820 
0.9540,0.000,8.798 
0.9542,0.000,8.798 
0.9545,0.000,7.820 
0.9548,0.000,8.798 
0.9550,0.000,8.798 
0.9553,0.000,8.798 
0.9555,0.000,8.798 
0.9557,0.000,8.798 
0.9560,0.000,8.798 
0.9563,0.000,9.775 
0.9565,0.000,9.775 
0.9567,0.000,8.798 
0.9570,0.000,8.798 
0.9572,0.000,12.708 
0.9575,0.000,11.730 
0.9578,0.000,12.708 
0.9580,0.000,11.730 
0.9582,0.000,11.730 
0.9585,0.000,11.730 
0.9588,0.000,11.730 
0.9590,0.000,11.730 
0.9592,0.000,11.730 
0.9595,0.000,7.820 
0.9597,0.000,7.820 
0.9600,0.000,7.820 
0.9603,0.000,8.798 
0.9605,0.000,7.820 
0.9607,0.000,8.798 
0.9610,0.000,8.798 
0.9613,0.000,8.798 
0.9615,0.000,8.798 
0.9617,0.000,11.730 
0.9620,0.000,11.730 
0.9622,0.000,11.730 
0.9625,0.000,10.753 
0.9628,0.000,8.798 
0.9630,0.000,7.820 
0.9632,0.000,7.820 
0.9635,0.000,8.798 
0.9638,0.000,9.775 
0.9640,0.000,8.798 
0.9643,0.000,11.730 
0.9645,0.000,11.730 
0.9647,0.000,10.753 
0.9650,0.000,7.820 
0.9653,0.000,8.798 
0.9655,0.000,8.798 
0.9657,0.000,7.820 
0.9660,0.000,7.820 
0.9663,0.000,8.798 
0.9665,0.000,8.798 
0.9668,0.000,8.798 
0.9670,0.000,11.730 
0.9672,0.000,10.753 
0.9675,0.000,10.753 
0.9678,0.000,7.820 
0.9680,0.000,8.798 
0.9682,0.000,7.820 
0.9685,0.000,8.798 
0.9688,0.000,8.798 
0.9690,0.000,8.798 
0.9693,0.000,11.730 
0.9695,0.000,11.730 
0.9697,0.000,10.753 
0.9700,0.000,10.753 
0.9703,0.000,7.820 
0.9705,0.000,7.820 
0.9707,0.000,8.798 
0.9710,0.000,8.798 
0.9712,0.000,8.798 
0.9715,0.000,11.730 
0.9718,0.000,11.730 
0.9720,0.000,10.753 
0.9722,0.000,7.820 
0.9725,0.000,8.798 
0.9728,0.000,8.798 
0.9730,0.000,8.798 
0.9732,0.000,9.775 
0.9735,0.000,9.775 
0.9737,0.000,11.730 
0.9740,0.000,12.708 
0.9743,0.000,11.730 
0.9745,0.000,11.730 
0.9747,0.000,11.730 
0.9750,0.000,10.753 
0.9753,0.000,7.820 
0.9755,0.000,7.820 
0.9758,0.000,8.798 
0.9760,0.000,8.798 
0.9762,0.000,8.798 
0.9765,0.000,7.820 
0.9768,0.000,8.798 
0.9770,0.000,8.798 
0.9772,0.000,8.798 
0.9775,0.000,8.798 
0.9778,0.000,8.798 
0.9780,0.000,8.798 
0.9783,0.000,8.798 
0.9785,0.000,9.775 
0.9787,0.000,12.708 
0.9790,0.000,11.730 
0.9793,0.000,11.730 
0.9795,0.000,11.730 
0.9797,0.000,11.730 
0.9800,0.000,10.753 
0.9803,0.000,7.820 
0.9805,0.000,8.798 
0.9808,0.000,8.798 
0.9810,0.000,8.798 
0.9812,0.000,8.798 
0.9815,0.000,8.798 
0.9818,0.000,8.798 
0.9820,0.000,11.730 
0.9822,0.000,11.730 
0.9825,0.000,11.730 
0.9827,0.000,11.730 
0.9830,0.000,11.730 
0.9833,0.000,10.753 
0.9835,0.000,8.798 
0.9837,0.000,7.820 
0.9840,0.000,6.843 
0.9843,0.000,8.798 
0.9845,0.000,8.798 
0.9847,0.000,8.798 
0.9850,0.000,8.798 
0.9852,0.000,8.798 
0.9855,0.000,7.820 
0.9858,0.000,9.775 
0.9860,0.000,11.730 
0.9862,0.000,11.730 
0.9865,0.000,11.730 
0.9868,0.000,10.753 
0.9870,0.000,7.820 
0.9872,0.000,7.820 
0.9875,0.000,7.820 
0.9877,0.000,8.798 
0.9880,0.000,8.798 
0.9883,0.000,8.798 
0.9885,0.000,8.798 
0.9887,0.000,12.708 
0.9890,0.000,11.730 
0.9893,0.000,11.730 
0.9895,0.000,11.730 
0.9898,0.000,10.753 
0.9900,0.000,10.753 
0.9902,0.000,8.798 
0.9905,0.000,8.798 
0.9908,0.000,8.798 
0.9910,0.000,8.798 
0.9912,0.000,8.798 
0.9915,0.000,8.798 
0.9918,0.000,9.775 
0.9920,0.000,11.730 
0.9923,0.000,11.730 
0.9925,0.000,11.730 
0.9927,0.000,11.730 
0.9930,0.000,10.753 
0.9933,0.000,11.730 
0.9935,0.000,10.753 
0.9937,0.000,8.798 
0.9940,0.000,7.820 
0.9942,0.000,8.798 
0.9945,0.000,7.820 
0.9948,0.000,7.820 
0.9950,0.000,8.798 
0.9952,0.000,8.798 
0.9955,0.000,8.798 
0.9958,0.000,11.730 
0.9960,0.000,11.730 
0.9962,0.000,10.753 
0.9965,0.000,10.753 
0.9967,0.000,7.820 
0.9970,0.000,7.820 
0.9973,0.000,7.820 
0.9975,0.000,8.798 
0.9977,0.000,7.820 
0.9980,0.000,8.798 
0.9983,0.000,10.753 
0.9985,0.000,11.730 
0.9987,0.000,11.730 
0.9990,0.000,10.753 
0.9992,0.000,7.820 
0.9995,0.000,7.820 
0.9998,0.000,7.820 
1.0000,0.000,8.798 
1.0002,0.000,8.798 
1.0005,0.000,7.820 
1.0007,0.000,8.798 
1.0010,0.000,8.798 
1.0013,0.000,11.730 
1.0015,0.000,11.730 
1.0017,0.000,9.775 
1.0020,0.000,7.820 
1.0022,0.000,7.820 
1.0025,0.000,8.798 
1.0028,0.000,9.775 
1.0030,0.000,11.730 
1.0033,0.000,10.753 
1.0035,0.000,7.820 
1.0037,0.000,8.798 
1.0040,0.000,7.820 
1.0043,0.000,8.798 
1.0045,0.000,9.775 
1.0048,0.000,11.730 
1.0050,0.000,11.730 
1.0052,0.000,10.753 
1.0055,0.000,7.820 
1.0057,0.000,7.820 
1.0060,0.000,7.820 
1.0063,0.000,8.798 
1.0065,0.000,8.798 
1.0067,0.000,8.798 
1.0070,0.000,11.730 
1.0072,0.000,11.730 
1.0075,0.000,11.730 
1.0078,0.000,10.753 
1.0080,0.000,7.820 
1.0082,0.000,7.820 
1.0085,0.000,8.798 
1.0087,0.000,7.820 
1.0090,0.000,7.820 
1.0093,0.000,8.798 
1.0095,0.000,8.798 
1.0098,0.000,8.798 
1.0100,0.000,8.798 
1.0102,0.000,9.775 
1.0105,0.000,8.798 
1.0108,0.000,9.775 
1.0110,0.000,9.775 
1.0113,0.000,12.708 
1.0115,0.000,11.730 
1.0117,0.000,11.730 
1.0120,0.000,11.730 
1.0122,0.000,11.730 
1.0125,0.000,7.820 
1.0128,0.000,7.820 
1.0130,0.000,8.798 
1.0132,0.000,7.820 
1.0135,0.000,8.798 
1.0137,0.000,7.820 
1.0140,0.000,8.798 
1.0143,0.000,8.798 
1.0145,0.000,8.798 
1.0148,0.000,8.798 
1.0150,0.000,8.798 
1.0152,0.000,9.775 
1.0155,0.000,9.775 
1.0158,0.000,11.730 
1.0160,0.000,11.730 
1.0163,0.000,10.753 
1.0165,0.000,10.753 
1.0167,0.000,8.798 
1.0170,0.000,8.798 
1.0172,0.000,8.798 
1.0175,0.000,9.775 
1.0178,0.000,11.730 
1.0180,0.000,11.730 
1.0182,0.000,10.753 
1.0185,0.000,7.820 
1.0187,0.000,7.820 
1.0190,0.000,7.820 
1.0193,0.000,8.798 
1.0195,0.000,8.798 
1.0197,0.000,8.798 
1.0200,0.000,8.798 
1.0202,0.000,8.798 
1.0205,0.000,8.798 
1.0208,0.000,11.730 
1.0210,0.000,11.730 
1.0213,0.000,10.753 
1.0215,0.000,10.753 
1.0217,0.000,10.753 
1.0220,0.000,8.798 
1.0223,0.000,8.798 
1.0225,0.000,7.820 
1.0228,0.000,7.820 
1.0230,0.000,8.798 
1.0232,0.000,8.798 
1.0235,0.000,8.798 
1.0237,0.000,8.798 
